imagePath,thisN,thisTrialN,thisRepN,word,color,cueSide,cueOri,targetX,corrAns,valid,resp.keys,resp.corr,resp.rt,resp.duration,blocks.thisRepN,blocks.thisTrialN,blocks.thisN,blocks.thisIndex,trials.thisRepN,trials.thisTrialN,trials.thisN,trials.thisIndex,thisRow.t,notes,intro_text.started,text.started,continue_resp.started,intro_text.stopped,continue_resp.keys,continue_resp.rt,continue_resp.duration,ITI.started,fixationITI.started,fixationITI.stopped,ITI.stopped,trial.started,fixationITI_continue.started,cue.started,target.started,cue.stopped,resp.started,trial.stopped,trials.resp.keys,trials.resp.corr,trials.resp.rt,trials.resp.duration,feedback.started,fixationITI_continue_feedback.started,text_feedback.started,feedback.stopped,fixationITI_continue_feedback.stopped,text_feedback.stopped,target.stopped,fixationITI_continue.stopped,resp.stopped,exit.started,text_thanks.started,text_thanks.stopped,exit.stopped,Participant,Age,Gender,Group,session,date,expName,psychopyVersion,frameRate,expStart,
,,,,,,,,,,,,,,,,,,,,,,,,,0.001626000041142106,0.00427910010330379,0.00427910010330379,2.958598400000483,space,2.9399342997930944,None,,,,,,,,,,,,,,,,,,,,,,,,,,,,,678988,,,A,001,2025-01-10_12h20.49.071,Yagmur_Final_308,2024.2.4,60.1372090367801,2025-01-10 12h20.56.364271 +0300,
images/coffee_mug.png,0,0,0,health,black,right,90,7,right,1,right,1,0.309312499826774,None,0,0,0,0,0,0,0,95,3.0443142999429256,,,,,,,,,3.016332400031388,3.0443142999429256,4.1719448999501765,4.155437800101936,4.16605110000819,4.1719448999501765,4.1719448999501765,4.371740800095722,4.371740800095722,4.371740800095722,4.689501600107178,right,1,0.309312499826774,None,4.705015300074592,4.709592999890447,4.709592999890447,5.704872000031173,,,,,,,,,,678988,,,A,001,2025-01-10_12h20.49.071,Yagmur_Final_308,2024.2.4,60.1372090367801,2025-01-10 12h20.56.364271 +0300,
images/coffee_mug.png,1,1,0,death,red,right,90,7,right,1,left,0,0.4557749000377953,None,0,0,0,0,0,1,1,39,5.721697800094262,,,,,,,,,5.716302799992263,5.721697800094262,6.904786000028253,6.888666700106114,6.898770099971443,6.904786000028253,6.904786000028253,7.104762000031769,7.104762000031769,7.104762000031769,7.572478400077671,left,0,0.4557749000377953,None,7.583328099921346,7.5879001000430435,7.5879001000430435,8.571701999986544,8.588212700095028,8.588212700095028,,,,,,,,678988,,,A,001,2025-01-10_12h20.49.071,Yagmur_Final_308,2024.2.4,60.1372090367801,2025-01-10 12h20.56.364271 +0300,
images/coffee_mug.png,2,2,0,death,black,left,-90,-7,left,1,right,0,0.4162506000138819,None,0,0,0,0,0,2,2,89,8.588212700095028,,,,,,,,,8.579550300026312,8.588212700095028,9.72105020005256,9.705299400025979,9.71546550001949,9.72105020005256,9.72105020005256,9.920908299973235,9.920908299973235,9.920908299973235,10.338741600047797,right,0,0.4162506000138819,None,10.347457699943334,10.354527000105008,10.354527000105008,11.338358599925414,11.354231900069863,11.354231900069863,,,,,,,,678988,,,A,001,2025-01-10_12h20.49.071,Yagmur_Final_308,2024.2.4,60.1372090367801,2025-01-10 12h20.56.364271 +0300,
images/coffee_mug.png,3,3,0,health,red,right,90,7,right,1,left,0,0.14380770013667643,None,0,0,0,0,0,3,3,9,11.354231900069863,,,,,,,,,11.349000700050965,11.354231900069863,12.554035299923271,12.537680099951103,12.549031500006095,12.554035299923271,12.554035299923271,12.754098000004888,12.754098000004888,12.754098000004888,12.904963199980557,left,0,0.14380770013667643,None,12.913383800070733,12.920796100050211,12.920796100050211,13.904335200088099,13.92063710000366,13.92063710000366,,,,,,,,678988,,,A,001,2025-01-10_12h20.49.071,Yagmur_Final_308,2024.2.4,60.1372090367801,2025-01-10 12h20.56.364271 +0300,
images/coffee_mug.png,4,4,0,death,blue,left,-90,-7,left,1,left,1,0.7960413999389857,None,0,0,0,0,0,4,4,76,13.92063710000366,,,,,,,,,13.913939899997786,13.92063710000366,15.020440999884158,15.004078000085428,15.014137800084427,15.020440999884158,15.020440999884158,15.22034820006229,15.22034820006229,15.22034820006229,16.02114459988661,left,1,0.7960413999389857,None,16.031592699931934,16.03712509991601,16.03712509991601,17.02049249992706,17.03676849999465,17.03676849999465,,,,,,,,678988,,,A,001,2025-01-10_12h20.49.071,Yagmur_Final_308,2024.2.4,60.1372090367801,2025-01-10 12h20.56.364271 +0300,
images/coffee_mug.png,5,5,0,death,black,left,-90,-7,left,1,right,0,0.16144190006889403,None,0,0,0,0,0,5,5,29,17.03676849999465,,,,,,,,,17.02693699998781,17.03676849999465,18.103289399994537,18.087209899909794,18.095897000050172,18.103289399994537,18.103289399994537,18.303287799935788,18.303287799935788,18.303287799935788,18.471144400071353,right,0,0.16144190006889403,None,18.48453380004503,18.48883859999478,18.48883859999478,19.486435800092295,,,,,,,,,,678988,,,A,001,2025-01-10_12h20.49.071,Yagmur_Final_308,2024.2.4,60.1372090367801,2025-01-10 12h20.56.364271 +0300,
images/coffee_mug.png,6,6,0,death,black,right,90,-7,left,0,right,0,0.6776446001604199,None,0,0,0,0,0,6,6,113,19.503354700049385,,,,,,,,,19.49484970001504,19.503354700049385,20.60297890007496,20.587050300091505,20.596008399967104,20.60297890007496,20.60297890007496,20.80293480004184,20.80293480004184,20.80293480004184,21.487496400019154,right,0,0.6776446001604199,None,21.49935059994459,21.503707400057465,21.503707400057465,22.486696700099856,22.502825600095093,22.502825600095093,,,,,,,,678988,,,A,001,2025-01-10_12h20.49.071,Yagmur_Final_308,2024.2.4,60.1372090367801,2025-01-10 12h20.56.364271 +0300,
images/coffee_mug.png,7,7,0,gate,red,left,-90,-7,left,1,right,0,0.09539110003970563,None,0,0,0,0,0,7,7,6,22.502825600095093,,,,,,,,,22.495394800091162,22.502825600095093,23.78627569996752,23.769765800097957,23.783444399945438,23.78627569996752,23.78627569996752,23.985633299918845,23.985633299918845,23.985633299918845,24.086615900043398,right,0,0.09539110003970563,None,24.094170399941504,24.102513799909502,24.102513799909502,25.0863793999888,25.102530299918726,25.102530299918726,,,,,,,,678988,,,A,001,2025-01-10_12h20.49.071,Yagmur_Final_308,2024.2.4,60.1372090367801,2025-01-10 12h20.56.364271 +0300,
images/coffee_mug.png,8,8,0,gate,blue,left,-90,-7,left,1,left,1,0.3109512999653816,None,0,0,0,0,0,8,8,43,25.102530299918726,,,,,,,,,25.098305199993774,25.102530299918726,26.219240400008857,26.202497200109065,26.208963999990374,26.219240400008857,26.219240400008857,26.418714799918234,26.418714799918234,26.418714799918234,26.737003799993545,left,1,0.3109512999653816,None,26.748194799991325,26.752537799999118,26.752537799999118,27.736150099895895,27.752235899912193,27.752235899912193,,,,,,,,678988,,,A,001,2025-01-10_12h20.49.071,Yagmur_Final_308,2024.2.4,60.1372090367801,2025-01-10 12h20.56.364271 +0300,
images/coffee_mug.png,9,9,0,gate,blue,left,-90,-7,left,1,left,1,0.22363830008544028,None,0,0,0,0,0,9,9,31,27.752235899912193,,,,,,,,,27.749314799904823,27.752235899912193,28.802021600073203,28.78558179992251,28.792619799962267,28.802021600073203,28.802021600073203,29.001690400065854,29.001690400065854,29.001690400065854,29.23645700002089,left,1,0.22363830008544028,None,29.244959299918264,29.25194210000336,29.25194210000336,30.235833700047806,30.251786099979654,30.251786099979654,,,,,,,,678988,,,A,001,2025-01-10_12h20.49.071,Yagmur_Final_308,2024.2.4,60.1372090367801,2025-01-10 12h20.56.364271 +0300,
images/coffee_mug.png,10,10,0,health,black,right,90,-7,left,0,right,0,0.17772640008479357,None,0,0,0,0,0,10,10,107,30.251786099979654,,,,,,,,,30.24315380002372,30.251786099979654,31.335306500084698,31.318900499958545,31.330104799941182,31.335306500084698,31.335306500084698,31.534924200037494,31.534924200037494,31.534924200037494,31.719331600004807,right,0,0.17772640008479357,None,31.733667199965566,31.737712000031024,31.737712000031024,32.73552990006283,,,,,,,,,,678988,,,A,001,2025-01-10_12h20.49.071,Yagmur_Final_308,2024.2.4,60.1372090367801,2025-01-10 12h20.56.364271 +0300,
images/coffee_mug.png,11,11,0,health,black,right,90,7,right,1,right,1,0.20756640005856752,None,0,0,0,0,0,11,11,35,32.75144420005381,,,,,,,,,32.745405399939045,32.75144420005381,33.801613699877635,33.7850961999502,33.79362119990401,33.801613699877635,33.801613699877635,34.001388899981976,34.001388899981976,34.001388899981976,34.21864109998569,right,1,0.20756640005856752,None,34.227061999961734,34.23494859994389,34.23494859994389,35.21836300007999,35.23478649999015,35.23478649999015,,,,,,,,678988,,,A,001,2025-01-10_12h20.49.071,Yagmur_Final_308,2024.2.4,60.1372090367801,2025-01-10 12h20.56.364271 +0300,
images/coffee_mug.png,12,12,0,health,red,right,90,7,right,1,left,0,0.06833359994925559,None,0,0,0,0,0,12,12,33,35.23478649999015,,,,,,,,,35.226516499882564,35.23478649999015,36.48451430001296,36.46830839989707,36.47711919993162,36.48451430001296,36.48451430001296,36.68413780000992,36.68413780000992,36.68413780000992,36.76887400005944,left,0,0.06833359994925559,None,36.7843688998837,36.788733900059015,36.788733900059015,37.784246099879965,,,,,,,,,,678988,,,A,001,2025-01-10_12h20.49.071,Yagmur_Final_308,2024.2.4,60.1372090367801,2025-01-10 12h20.56.364271 +0300,
images/coffee_mug.png,13,13,0,hate,red,left,-90,7,right,0,left,0,0.13128419988788664,None,0,0,0,0,0,13,13,96,37.80080679990351,,,,,,,,,37.792647199938074,37.80080679990351,38.90093420003541,38.88462319993414,38.89471299992874,38.90093420003541,38.90093420003541,39.10053510009311,39.10053510009311,39.10053510009311,39.235311599913985,left,0,0.13128419988788664,None,39.24430890008807,39.25087559991516,39.25087559991516,40.23435959988274,40.25048359995708,40.25048359995708,,,,,,,,678988,,,A,001,2025-01-10_12h20.49.071,Yagmur_Final_308,2024.2.4,60.1372090367801,2025-01-10 12h20.56.364271 +0300,
images/coffee_mug.png,14,14,0,hate,red,right,90,7,right,1,right,1,0.07788040000014007,None,0,0,0,0,0,14,14,60,40.25048359995708,,,,,,,,,40.242605899926275,40.25048359995708,41.483848500065506,41.46754239988513,41.4758963000495,41.483848500065506,41.483848500065506,41.68339310004376,41.68339310004376,41.68339310004376,41.768148199887946,right,1,0.07788040000014007,None,41.77827210002579,41.78363010007888,41.78363010007888,42.767556600039825,42.78388120001182,42.78388120001182,,,,,,,,678988,,,A,001,2025-01-10_12h20.49.071,Yagmur_Final_308,2024.2.4,60.1372090367801,2025-01-10 12h20.56.364271 +0300,
images/coffee_mug.png,15,15,0,gate,black,right,90,7,right,1,left,0,0.0406738999299705,None,0,0,0,0,0,15,15,44,42.78388120001182,,,,,,,,,42.77594380010851,42.78388120001182,44.01691080001183,44.001114499988034,44.01177549990825,44.01691080001183,44.01691080001183,44.21670260000974,44.21670260000974,44.21670260000974,44.26758629991673,left,0,0.0406738999299705,None,44.2803050999064,44.284856100101024,44.284856100101024,45.2830757999327,,,,,,,,,,678988,,,A,001,2025-01-10_12h20.49.071,Yagmur_Final_308,2024.2.4,60.1372090367801,2025-01-10 12h20.56.364271 +0300,
images/coffee_mug.png,16,16,0,health,black,right,90,7,right,1,left,0,0.15470360009931028,None,0,0,0,0,0,16,16,83,45.29987809993327,,,,,,,,,45.29103509988636,45.29987809993327,46.349753099959344,46.333521499997005,46.34650540002622,46.349753099959344,46.349753099959344,46.54979690001346,46.54979690001346,46.54979690001346,46.71719069988467,left,0,0.15470360009931028,None,46.72450289991684,46.73302010004409,46.73302010004409,47.716921699931845,47.73286539991386,47.73286539991386,,,,,,,,678988,,,A,001,2025-01-10_12h20.49.071,Yagmur_Final_308,2024.2.4,60.1372090367801,2025-01-10 12h20.56.364271 +0300,
images/coffee_mug.png,17,17,0,hate,blue,right,90,7,right,1,right,1,0.14210589998401701,None,0,0,0,0,0,17,17,49,47.73286539991386,,,,,,,,,47.725462900009006,47.73286539991386,48.90081680007279,48.8834998998791,48.89743739995174,48.90081680007279,48.90081680007279,49.09926760010421,49.09926760010421,49.09926760010421,49.25021849991754,right,1,0.14210589998401701,None,49.25956470007077,49.26631919993088,49.26631919993088,50.249988900031894,50.265897300094366,50.265897300094366,,,,,,,,678988,,,A,001,2025-01-10_12h20.49.071,Yagmur_Final_308,2024.2.4,60.1372090367801,2025-01-10 12h20.56.364271 +0300,
images/coffee_mug.png,18,18,0,health,red,right,90,7,right,1,right,1,0.1714166000019759,None,0,0,0,0,0,18,18,93,50.265897300094366,,,,,,,,,50.25791250006296,50.265897300094366,51.333983399905264,51.316520699998364,51.33077979995869,51.333983399905264,51.333983399905264,51.53243610006757,51.53243610006757,51.53243610006757,51.716640800004825,right,1,0.1714166000019759,None,51.725651500048116,51.73269019997679,51.73269019997679,52.71610990003683,52.732405700022355,52.732405700022355,,,,,,,,678988,,,A,001,2025-01-10_12h20.49.071,Yagmur_Final_308,2024.2.4,60.1372090367801,2025-01-10 12h20.56.364271 +0300,
images/coffee_mug.png,19,19,0,gate,black,right,90,7,right,1,right,1,0.03339010011404753,None,0,0,0,0,0,19,19,92,52.732405700022355,,,,,,,,,52.72479690006003,52.732405700022355,53.8155799000524,53.799611299997196,53.81073609995656,53.8155799000524,53.8155799000524,54.015534499892965,54.015534499892965,54.015534499892965,54.06614560005255,right,1,0.03339010011404753,None,54.07328279991634,54.08211730001494,54.08211730001494,55.06564199994318,55.08242779993452,55.08242779993452,,,,,,,,678988,,,A,001,2025-01-10_12h20.49.071,Yagmur_Final_308,2024.2.4,60.1372090367801,2025-01-10 12h20.56.364271 +0300,
images/coffee_mug.png,20,20,0,gate,blue,right,90,-7,left,0,left,1,0.2244955999776721,None,0,0,0,0,0,20,20,103,55.08242779993452,,,,,,,,,55.07214440009557,55.08242779993452,56.26511440007016,56.24887949996628,56.25583059992641,56.26511440007016,56.26511440007016,56.46500499988906,56.46500499988906,56.46500499988906,56.699421300087124,left,1,0.2244955999776721,None,56.70784329995513,56.71507630008273,56.71507630008273,57.69897340005264,57.71492570010014,57.71492570010014,,,,,,,,678988,,,A,001,2025-01-10_12h20.49.071,Yagmur_Final_308,2024.2.4,60.1372090367801,2025-01-10 12h20.56.364271 +0300,
images/coffee_mug.png,21,21,0,gate,red,left,-90,-7,left,1,left,1,0.3069369001314044,None,0,0,0,0,0,21,21,90,57.71492570010014,,,,,,,,,57.70727859996259,57.71492570010014,58.815050800098106,58.798661899985746,58.80627100006677,58.815050800098106,58.815050800098106,59.01462349994108,59.01462349994108,59.01462349994108,59.332400700077415,left,1,0.3069369001314044,None,59.34223069995642,59.34816620009951,59.34816620009951,60.331987200072035,60.347930799936876,60.347930799936876,,,,,,,,678988,,,A,001,2025-01-10_12h20.49.071,Yagmur_Final_308,2024.2.4,60.1372090367801,2025-01-10 12h20.56.364271 +0300,
images/coffee_mug.png,22,22,0,hate,black,right,90,7,right,1,left,0,0.22417360008694232,None,0,0,0,0,0,22,22,50,60.347930799936876,,,,,,,,,60.340471399948,60.347930799936876,61.66442000004463,61.648428099928424,61.65828919992782,61.66442000004463,61.66442000004463,61.86435419996269,61.86435419996269,61.86435419996269,62.09878379991278,left,0,0.22417360008694232,None,62.10689699999057,62.11455939989537,62.11455939989537,63.098067899933085,63.11436200002208,63.11436200002208,,,,,,,,678988,,,A,001,2025-01-10_12h20.49.071,Yagmur_Final_308,2024.2.4,60.1372090367801,2025-01-10 12h20.56.364271 +0300,
images/coffee_mug.png,23,23,0,gate,blue,left,-90,-7,left,1,right,0,0.18843660014681518,None,0,0,0,0,0,23,23,91,63.11436200002208,,,,,,,,,63.10496050002985,63.11436200002208,64.34762039990164,64.33133720001206,64.3413410000503,64.34762039990164,64.34762039990164,64.54731939989142,64.54731939989142,64.54731939989142,64.74834190006368,right,0,0.18843660014681518,None,64.75770259997807,64.76404969999567,64.76404969999567,65.74777720007114,65.76422049989924,65.76422049989924,,,,,,,,678988,,,A,001,2025-01-10_12h20.49.071,Yagmur_Final_308,2024.2.4,60.1372090367801,2025-01-10 12h20.56.364271 +0300,
images/coffee_mug.png,24,24,0,gate,blue,left,-90,-7,left,1,right,0,0.2394570999313146,None,0,0,0,0,0,24,24,19,65.76422049989924,,,,,,,,,65.75545180006884,65.76422049989924,66.88052879995666,66.86445809993893,66.87401070003398,66.88052879995666,66.88052879995666,67.08050419995561,67.08050419995561,67.08050419995561,67.33167560002767,right,0,0.2394570999313146,None,67.34389610006474,67.34896189998835,67.34896189998835,68.34679830004461,,,,,,,,,,678988,,,A,001,2025-01-10_12h20.49.071,Yagmur_Final_308,2024.2.4,60.1372090367801,2025-01-10 12h20.56.364271 +0300,
images/coffee_mug.png,25,25,0,hate,blue,right,90,7,right,1,right,1,0.05326890014111996,None,0,0,0,0,0,25,25,13,68.36362769990228,,,,,,,,,68.35564389987849,68.36362769990228,69.747237799922,69.73055540001951,69.74411550001241,69.747237799922,69.747237799922,69.94668020005338,69.94668020005338,69.94668020005338,70.01415299996734,right,1,0.05326890014111996,None,70.02239779988304,70.03023430006579,70.03023430006579,71.01386549999006,71.03019610000774,71.03019610000774,,,,,,,,678988,,,A,001,2025-01-10_12h20.49.071,Yagmur_Final_308,2024.2.4,60.1372090367801,2025-01-10 12h20.56.364271 +0300,
images/coffee_mug.png,26,26,0,gate,red,left,-90,-7,left,1,right,0,0.013779300032183528,None,0,0,0,0,0,26,26,66,71.03019610000774,,,,,,,,,71.0219101998955,71.03019610000774,72.1799518999178,72.16351139987819,72.17352059995756,72.1799518999178,72.1799518999178,72.3795356999617,72.3795356999617,72.3795356999617,72.39796900004148,right,0,0.013779300032183528,None,72.41307649994269,72.41720529994927,72.41720529994927,73.41336930007674,,,,,,,,,,678988,,,A,001,2025-01-10_12h20.49.071,Yagmur_Final_308,2024.2.4,60.1372090367801,2025-01-10 12h20.56.364271 +0300,
images/coffee_mug.png,27,27,0,health,red,right,90,7,right,1,right,1,0.14490900002419949,None,0,0,0,0,0,27,27,21,73.42962540010922,,,,,,,,,73.42363790003583,73.42962540010922,74.67971280007623,74.66345519991592,74.67414800007828,74.67971280007623,74.67971280007623,74.87927630008198,74.87927630008198,74.87927630008198,75.03014949988574,right,1,0.14490900002419949,None,75.03873850009404,75.046543299919,75.046543299919,76.0296662999317,76.0459322000388,76.0459322000388,,,,,,,,678988,,,A,001,2025-01-10_12h20.49.071,Yagmur_Final_308,2024.2.4,60.1372090367801,2025-01-10 12h20.56.364271 +0300,
images/coffee_mug.png,28,28,0,health,black,right,90,7,right,1,right,1,0.12655439996160567,None,0,0,0,0,0,28,28,23,76.0459322000388,,,,,,,,,76.03584820008837,76.0459322000388,77.36262840009294,77.34639859991148,77.35511730005965,77.36262840009294,77.36262840009294,77.56239089998417,77.56239089998417,77.56239089998417,77.69674340006895,right,1,0.12655439996160567,None,77.70497819990851,77.71240659989417,77.71240659989417,78.69624070008285,78.71254580002278,78.71254580002278,,,,,,,,678988,,,A,001,2025-01-10_12h20.49.071,Yagmur_Final_308,2024.2.4,60.1372090367801,2025-01-10 12h20.56.364271 +0300,
images/coffee_mug.png,29,29,0,hate,red,right,90,7,right,1,right,1,0.11934290011413395,None,0,0,0,0,0,29,29,84,78.71254580002278,,,,,,,,,78.70661620004103,78.71254580002278,79.7455851000268,79.72940400009975,79.73975399998017,79.7455851000268,79.7455851000268,79.94541879999451,79.94541879999451,79.94541879999451,80.07978880009614,right,1,0.11934290011413395,None,80.08807970001362,80.09541839989834,80.09541839989834,81.07916609989479,81.09537620004267,81.09537620004267,,,,,,,,678988,,,A,001,2025-01-10_12h20.49.071,Yagmur_Final_308,2024.2.4,60.1372090367801,2025-01-10 12h20.56.364271 +0300,
images/coffee_mug.png,30,30,0,health,blue,left,-90,7,right,0,right,1,0.13732779980637133,None,0,0,0,0,0,30,30,106,81.09537620004267,,,,,,,,,81.08721809997223,81.09537620004267,82.11197399999946,82.09565789997578,82.10694739990868,82.11197399999946,82.11197399999946,82.31166290002875,82.31166290002875,82.31166290002875,82.46311370003968,right,1,0.13732779980637133,None,82.47278139996342,82.47846730006859,82.47846730006859,83.46234040008858,83.47873430000618,83.47873430000618,,,,,,,,678988,,,A,001,2025-01-10_12h20.49.071,Yagmur_Final_308,2024.2.4,60.1372090367801,2025-01-10 12h20.56.364271 +0300,
images/coffee_mug.png,31,31,0,death,blue,left,-90,7,right,0,left,0,0.2836102999281138,None,0,0,0,0,0,31,31,112,83.47873430000618,,,,,,,,,83.47110389987938,83.47873430000618,84.64485480007716,84.6288302000612,84.64040270005353,84.64485480007716,84.64485480007716,84.84474410000257,84.84474410000257,84.84474410000257,85.14567929995246,left,0,0.2836102999281138,None,85.15771499997936,85.16152449999936,85.16152449999936,86.14514419995248,86.16168439993635,86.16168439993635,,,,,,,,678988,,,A,001,2025-01-10_12h20.49.071,Yagmur_Final_308,2024.2.4,60.1372090367801,2025-01-10 12h20.56.364271 +0300,
images/coffee_mug.png,32,32,0,gate,red,left,-90,-7,left,1,left,1,0.06559150014072657,None,0,0,0,0,0,32,32,54,86.16168439993635,,,,,,,,,86.15349639998749,86.16168439993635,87.32813580008224,87.31179570010863,87.32239899993874,87.32813580008224,87.32813580008224,87.52771720010787,87.52771720010787,87.52771720010787,87.59563799994066,left,1,0.06559150014072657,None,87.60693349991925,87.61131060007028,87.61131060007028,88.5949407001026,88.61130969994701,88.61130969994701,,,,,,,,678988,,,A,001,2025-01-10_12h20.49.071,Yagmur_Final_308,2024.2.4,60.1372090367801,2025-01-10 12h20.56.364271 +0300,
images/coffee_mug.png,33,33,0,hate,red,right,90,7,right,1,right,1,0.1670819001737982,None,0,0,0,0,0,33,33,12,88.61130969994701,,,,,,,,,88.60358479991555,88.61130969994701,89.79479399998672,89.77823739987798,89.79144049994648,89.79479399998672,89.79479399998672,89.99406779999845,89.99406779999845,89.99406779999845,90.17815449996851,right,1,0.1670819001737982,None,90.18645670008846,90.19422729988582,90.19422729988582,91.17803029995412,91.19436080008745,91.19436080008745,,,,,,,,678988,,,A,001,2025-01-10_12h20.49.071,Yagmur_Final_308,2024.2.4,60.1372090367801,2025-01-10 12h20.56.364271 +0300,
images/coffee_mug.png,34,34,0,health,blue,right,90,7,right,1,right,1,0.22915720008313656,None,0,0,0,0,0,34,34,34,91.19436080008745,,,,,,,,,91.18616689997725,91.19436080008745,92.2440766999498,92.22755840001628,92.23827020009048,92.2440766999498,92.2440766999498,92.44389109988697,92.44389109988697,92.44389109988697,92.67818529997021,right,1,0.22915720008313656,None,92.68739089998417,92.69404969993047,92.69404969993047,93.67769329994917,93.6936973000411,93.6936973000411,,,,,,,,678988,,,A,001,2025-01-10_12h20.49.071,Yagmur_Final_308,2024.2.4,60.1372090367801,2025-01-10 12h20.56.364271 +0300,
images/coffee_mug.png,35,35,0,death,red,right,90,7,right,1,left,0,0.1875195000320673,None,0,0,0,0,0,35,35,87,93.6936973000411,,,,,,,,,93.68573920009658,93.6936973000411,94.89363320008852,94.87767249997705,94.88893330004066,94.89363320008852,94.89363320008852,95.09352950006723,95.09352950006723,95.09352950006723,95.29430259997025,left,0,0.1875195000320673,None,95.30583920003846,95.31030480004847,95.31030480004847,96.29370209993795,96.31021669995971,96.31021669995971,,,,,,,,678988,,,A,001,2025-01-10_12h20.49.071,Yagmur_Final_308,2024.2.4,60.1372090367801,2025-01-10 12h20.56.364271 +0300,
images/coffee_mug.png,36,36,0,death,black,left,-90,-7,left,1,left,1,0.11703419988043606,None,0,0,0,0,0,36,36,41,96.31021669995971,,,,,,,,,96.30177469993941,96.31021669995971,97.46011139987968,97.44366339989938,97.45274790003896,97.46011139987968,97.46011139987968,97.65966410003603,97.65966410003603,97.65966410003603,97.79393190005794,left,1,0.11703419988043606,None,97.80504540004767,97.81001919996925,97.81001919996925,98.79382569994777,98.8098249998875,98.8098249998875,,,,,,,,678988,,,A,001,2025-01-10_12h20.49.071,Yagmur_Final_308,2024.2.4,60.1372090367801,2025-01-10 12h20.56.364271 +0300,
images/coffee_mug.png,37,37,0,health,red,right,90,7,right,1,left,0,0.7445845000911504,None,0,0,0,0,0,37,37,45,98.8098249998875,,,,,,,,,98.80247840005904,98.8098249998875,99.99299550009891,99.97687210002914,99.9882805000525,99.99299550009891,99.99299550009891,100.19279580004513,100.19279580004513,100.19279580004513,100.94387919991277,left,0,0.7445845000911504,None,100.95792179997079,100.96218509995379,100.96218509995379,101.95928489998914,,,,,,,,,,678988,,,A,001,2025-01-10_12h20.49.071,Yagmur_Final_308,2024.2.4,60.1372090367801,2025-01-10 12h20.56.364271 +0300,
images/coffee_mug.png,38,38,0,gate,black,left,-90,7,right,0,None,0,,,0,0,0,0,0,38,38,116,101.97600869997405,,,,,,,,,101.96832840004936,101.97600869997405,103.22615949995816,103.20989389996976,103.22293879999779,103.22615949995816,103.22615949995816,103.42560130008496,103.42560130008496,103.42560130008496,105.40922529995441,None,0,,,105.41749050002545,105.42571430001408,105.42571430001408,106.40930639998987,106.42564420006238,106.42564420006238,104.42548360000364,105.42571430001408,105.42571430001408,,,,,678988,,,A,001,2025-01-10_12h20.49.071,Yagmur_Final_308,2024.2.4,60.1372090367801,2025-01-10 12h20.56.364271 +0300,
images/coffee_mug.png,39,39,0,hate,blue,right,90,-7,left,0,right,0,0.11108710011467338,None,0,0,0,0,0,39,39,97,106.42564420006238,,,,,,,,,106.4174790000543,106.42564420006238,107.65889779990539,107.64256120007485,107.65321919997223,107.65889779990539,107.65889779990539,107.85829870007001,107.85829870007001,107.85829870007001,107.97621949994937,right,0,0.11108710011467338,None,107.98460699990392,107.99195610010065,107.99195610010065,108.97568090003915,108.99176210002042,108.99176210002042,,,,,,,,678988,,,A,001,2025-01-10_12h20.49.071,Yagmur_Final_308,2024.2.4,60.1372090367801,2025-01-10 12h20.56.364271 +0300,
images/coffee_mug.png,40,40,0,death,black,left,-90,-7,left,1,left,1,0.06968720001168549,None,0,0,0,0,0,40,40,65,108.99176210002042,,,,,,,,,108.98378059989773,108.99176210002042,110.05844849999994,110.04193890001625,110.05314110009931,110.05844849999994,110.05844849999994,110.2584408998955,110.2584408998955,110.2584408998955,110.34283209987916,left,1,0.06968720001168549,None,110.35636160010472,110.36069129989482,110.36069129989482,111.35829539992847,,,,,,,,,,678988,,,A,001,2025-01-10_12h20.49.071,Yagmur_Final_308,2024.2.4,60.1372090367801,2025-01-10 12h20.56.364271 +0300,
images/coffee_mug.png,41,41,0,death,blue,left,-90,-7,left,1,left,1,0.39174419990740716,None,0,0,0,0,0,41,41,16,111.37506380002014,,,,,,,,,111.36700430000201,111.37506380002014,112.46582100004889,112.44178649992682,112.46288640005514,112.46582100004889,112.46582100004889,112.65768869989552,112.65768869989552,112.65768869989552,113.0586230000481,left,1,0.39174419990740716,None,113.06695910007693,113.07473789993674,113.07473789993674,114.0584732000716,114.0745019998867,114.0745019998867,,,,,,,,678988,,,A,001,2025-01-10_12h20.49.071,Yagmur_Final_308,2024.2.4,60.1372090367801,2025-01-10 12h20.56.364271 +0300,
images/coffee_mug.png,42,42,0,hate,blue,right,90,7,right,1,right,1,0.2830036000814289,None,0,0,0,0,0,42,42,1,114.0745019998867,,,,,,,,,114.06659319996834,114.0745019998867,115.34130569989793,115.32492949999869,115.33668639999814,115.34130569989793,115.34130569989793,115.54103419999592,115.54103419999592,115.54103419999592,115.82536959997378,right,1,0.2830036000814289,None,115.83503419999033,115.84088369994424,115.84088369994424,116.82456779992208,116.84075019997545,116.84075019997545,,,,,,,,678988,,,A,001,2025-01-10_12h20.49.071,Yagmur_Final_308,2024.2.4,60.1372090367801,2025-01-10 12h20.56.364271 +0300,
images/coffee_mug.png,43,43,0,gate,blue,left,-90,-7,left,1,right,0,0.06983579997904599,None,0,0,0,0,0,43,43,79,116.84075019997545,,,,,,,,,116.83367659989744,116.84075019997545,117.90732880006544,117.89098959998228,117.9029035998974,117.90732880006544,117.90732880006544,118.10716710006818,118.10716710006818,118.10716710006818,118.19138929992914,right,0,0.06983579997904599,None,118.20296530006453,118.20729799987748,118.20729799987748,119.19108300004154,119.20739359990694,119.20739359990694,,,,,,,,678988,,,A,001,2025-01-10_12h20.49.071,Yagmur_Final_308,2024.2.4,60.1372090367801,2025-01-10 12h20.56.364271 +0300,
images/coffee_mug.png,44,44,0,gate,black,right,90,7,right,1,left,0,0.08344669989310205,None,0,0,0,0,0,44,44,80,119.20739359990694,,,,,,,,,119.19920779997483,119.20739359990694,120.3571466000285,120.34082189993933,120.3498954998795,120.3571466000285,120.3571466000285,120.55671499995515,120.55671499995515,120.55671499995515,120.64156830008142,left,0,0.08344669989310205,None,120.65126920002513,120.65697050001472,120.65697050001472,121.64077590010129,121.65713470010087,121.65713470010087,,,,,,,,678988,,,A,001,2025-01-10_12h20.49.071,Yagmur_Final_308,2024.2.4,60.1372090367801,2025-01-10 12h20.56.364271 +0300,
images/coffee_mug.png,45,45,0,death,red,right,90,7,right,1,left,0,0.03185190004296601,None,0,0,0,0,0,45,45,75,121.65713470010087,,,,,,,,,121.64990839990787,121.65713470010087,122.87356449989602,122.85720460000448,122.86833609989844,122.87356449989602,122.87356449989602,123.0733201999683,123.0733201999683,123.0733201999683,123.10755249997601,left,0,0.03185190004296601,None,123.11588980001397,123.12361490004696,123.12361490004696,124.10718869999982,124.12342309998348,124.12342309998348,,,,,,,,678988,,,A,001,2025-01-10_12h20.49.071,Yagmur_Final_308,2024.2.4,60.1372090367801,2025-01-10 12h20.56.364271 +0300,
images/coffee_mug.png,46,46,0,health,blue,right,90,7,right,1,None,0,,,0,0,0,0,0,46,46,22,124.12342309998348,,,,,,,,,124.11581639992073,124.12342309998348,125.18969990010373,125.17348070000298,125.18451879988424,125.18969990010373,125.18969990010373,125.38961039995775,125.38961039995775,125.38961039995775,127.37344489991665,None,0,,,127.38179189991206,127.3897778999526,127.3897778999526,128.37295160000212,128.38940489990637,128.38940489990637,126.38962260005064,127.3897778999526,127.3897778999526,,,,,678988,,,A,001,2025-01-10_12h20.49.071,Yagmur_Final_308,2024.2.4,60.1372090367801,2025-01-10 12h20.56.364271 +0300,
images/coffee_mug.png,47,47,0,health,blue,right,90,7,right,1,left,0,0.08185299998149276,None,0,0,0,0,0,47,47,70,128.38940489990637,,,,,,,,,128.38122599991038,128.38940489990637,129.45580530003645,129.43977930000983,129.4481361999642,129.45580530003645,129.45580530003645,129.6556873000227,129.6556873000227,129.6556873000227,129.7398463001009,left,0,0.08185299998149276,None,129.74840579996817,129.75582459988073,129.75582459988073,130.7394759999588,130.7558873000089,130.7558873000089,,,,,,,,678988,,,A,001,2025-01-10_12h20.49.071,Yagmur_Final_308,2024.2.4,60.1372090367801,2025-01-10 12h20.56.364271 +0300,
images/coffee_mug.png,48,48,0,hate,blue,right,90,-7,left,0,right,0,0.10887239989824593,None,0,0,0,0,0,48,48,109,130.7558873000089,,,,,,,,,130.74771369993687,130.7558873000089,131.9725432000123,131.95594309992157,131.966415300034,131.9725432000123,131.9725432000123,132.17209529993124,132.17209529993124,132.17209529993124,132.2897109000478,right,0,0.10887239989824593,None,132.29799719993025,132.3054593000561,132.3054593000561,133.28916459996253,133.3053065999411,133.3053065999411,,,,,,,,678988,,,A,001,2025-01-10_12h20.49.071,Yagmur_Final_308,2024.2.4,60.1372090367801,2025-01-10 12h20.56.364271 +0300,
images/coffee_mug.png,49,49,0,hate,black,left,-90,7,right,0,right,1,0.224108399823308,None,0,0,0,0,0,49,49,98,133.3053065999411,,,,,,,,,133.29719999991357,133.3053065999411,134.5054907000158,134.4890634000767,134.49848950002342,134.5054907000158,134.5054907000158,134.70502309990115,134.70502309990115,134.70502309990115,134.93950259988196,right,1,0.224108399823308,None,134.95137399993837,134.9557656000834,134.9557656000834,135.93891489994712,135.95518509997055,135.95518509997055,,,,,,,,678988,,,A,001,2025-01-10_12h20.49.071,Yagmur_Final_308,2024.2.4,60.1372090367801,2025-01-10 12h20.56.364271 +0300,
images/coffee_mug.png,50,50,0,health,blue,right,90,7,right,1,right,1,0.08801320008933544,None,0,0,0,0,0,50,50,94,135.95518509997055,,,,,,,,,135.95002499991097,135.95518509997055,137.0881944000721,137.0721628998872,137.0835064998828,137.0881944000721,137.0881944000721,137.28808930004016,137.28808930004016,137.28808930004016,137.38917419989593,right,1,0.08801320008933544,None,137.3975452000741,137.4051427000668,137.4051427000668,138.38863969990052,138.40500720008276,138.40500720008276,,,,,,,,678988,,,A,001,2025-01-10_12h20.49.071,Yagmur_Final_308,2024.2.4,60.1372090367801,2025-01-10 12h20.56.364271 +0300,
images/coffee_mug.png,51,51,0,gate,red,left,-90,7,right,0,right,1,0.5172200999222696,None,0,0,0,0,0,51,51,114,138.40500720008276,,,,,,,,,138.3966276999563,138.40500720008276,139.6045045000501,139.58849080000073,139.5989145000931,139.6045045000501,139.6045045000501,139.80429259990342,139.80429259990342,139.80429259990342,140.33854139992036,right,1,0.5172200999222696,None,140.34697200008668,140.35441930009983,140.35441930009983,141.3381284000352,141.3542865999043,141.3542865999043,,,,,,,,678988,,,A,001,2025-01-10_12h20.49.071,Yagmur_Final_308,2024.2.4,60.1372090367801,2025-01-10 12h20.56.364271 +0300,
images/coffee_mug.png,52,52,0,hate,black,right,90,7,right,1,right,1,0.19972189981490374,None,0,0,0,0,0,52,52,86,141.3542865999043,,,,,,,,,141.3462088999804,141.3542865999043,142.5378646000754,142.52137090009637,142.53183400002308,142.5378646000754,142.5378646000754,142.73748470004648,142.73748470004648,142.73748470004648,142.93845349992625,right,1,0.19972189981490374,None,142.94700319995172,142.95458310004324,142.95458310004324,143.93769220006652,143.95416600001045,143.95416600001045,,,,,,,,678988,,,A,001,2025-01-10_12h20.49.071,Yagmur_Final_308,2024.2.4,60.1372090367801,2025-01-10 12h20.56.364271 +0300,
images/coffee_mug.png,53,53,0,hate,red,right,90,7,right,1,right,1,0.21555089997127652,None,0,0,0,0,0,53,53,48,143.95416600001045,,,,,,,,,143.94579669996165,143.95416600001045,145.13756030006334,145.12102099996991,145.13005360006355,145.13756030006334,145.13756030006334,145.33705629990436,145.33705629990436,145.33705629990436,145.55498180002905,right,1,0.21555089997127652,None,145.56429330003448,145.5705566999968,145.5705566999968,146.55432339990512,146.5705575000029,146.5705575000029,,,,,,,,678988,,,A,001,2025-01-10_12h20.49.071,Yagmur_Final_308,2024.2.4,60.1372090367801,2025-01-10 12h20.56.364271 +0300,
images/coffee_mug.png,54,54,0,gate,black,right,90,7,right,1,right,1,1.187368999933824,None,0,0,0,0,0,54,54,68,146.5705575000029,,,,,,,,,146.56291069998406,146.5705575000029,147.65347460005432,147.63715229998343,147.6492904999759,147.65347460005432,147.65347460005432,147.853404100053,147.853404100053,147.853404100053,149.05431589996442,right,1,1.187368999933824,None,149.06269320007414,149.07001239992678,149.07001239992678,150.05356330005452,150.07013950007968,150.07013950007968,148.85324240010232,,,,,,,678988,,,A,001,2025-01-10_12h20.49.071,Yagmur_Final_308,2024.2.4,60.1372090367801,2025-01-10 12h20.56.364271 +0300,
images/coffee_mug.png,55,55,0,health,blue,right,90,7,right,1,right,1,1.332436699885875,None,0,0,0,0,0,55,55,10,150.07013950007968,,,,,,,,,150.0615260999184,150.07013950007968,151.25332179991528,151.2367813999299,151.24788679997437,151.25332179991528,151.25332179991528,151.4530964998994,151.4530964998994,151.4530964998994,152.7873943001032,right,1,1.332436699885875,None,152.79562749993056,152.80287560005672,152.80287560005672,153.78671830007806,153.80277099995874,153.80277099995874,152.452825400047,,,,,,,678988,,,A,001,2025-01-10_12h20.49.071,Yagmur_Final_308,2024.2.4,60.1372090367801,2025-01-10 12h20.56.364271 +0300,
images/coffee_mug.png,56,56,0,death,red,right,90,7,right,1,left,0,0.1560725001618266,None,0,0,0,0,0,56,56,63,153.80277099995874,,,,,,,,,153.79563069995493,153.80277099995874,154.8360894001089,154.82027709996328,154.83090119995177,154.8360894001089,154.8360894001089,155.03580909990706,155.03580909990706,155.03580909990706,155.20373729988933,left,0,0.1560725001618266,None,155.21440840000287,155.21934329997748,155.21934329997748,156.2029218999669,156.21925409999676,156.21925409999676,,,,,,,,678988,,,A,001,2025-01-10_12h20.49.071,Yagmur_Final_308,2024.2.4,60.1372090367801,2025-01-10 12h20.56.364271 +0300,
images/coffee_mug.png,57,57,0,hate,red,left,-90,7,right,0,right,1,0.6027166999410838,None,0,0,0,0,0,57,57,108,156.21925409999676,,,,,,,,,156.2109578999225,156.21925409999676,157.28593249991536,157.2694341999013,157.2800604000222,157.28593249991536,157.28593249991536,157.4853417999111,157.4853417999111,157.4853417999111,158.10316630010493,right,1,0.6027166999410838,None,158.11382089997642,158.11907449993305,158.11907449993305,159.10275830002502,159.11901460005902,159.11901460005902,,,,,,,,678988,,,A,001,2025-01-10_12h20.49.071,Yagmur_Final_308,2024.2.4,60.1372090367801,2025-01-10 12h20.56.364271 +0300,
images/coffee_mug.png,58,58,0,death,blue,left,-90,-7,left,1,right,0,0.1568177998997271,None,0,0,0,0,0,58,58,64,159.11901460005902,,,,,,,,,159.1108301000204,159.11901460005902,160.25192319997586,160.2357834998984,160.24689839989878,160.25192319997586,160.25192319997586,160.45184920006432,160.45184920006432,160.45184920006432,160.61939050001092,right,0,0.1568177998997271,None,160.6305730000604,160.63518050010316,160.63518050010316,161.61895940010436,161.63506149989553,161.63506149989553,,,,,,,,678988,,,A,001,2025-01-10_12h20.49.071,Yagmur_Final_308,2024.2.4,60.1372090367801,2025-01-10 12h20.56.364271 +0300,
images/coffee_mug.png,59,59,0,hate,blue,right,90,7,right,1,left,0,0.13340230006724596,None,0,0,0,0,0,59,59,85,161.63506149989553,,,,,,,,,161.62696789996698,161.63506149989553,162.65169309987687,162.63556040008552,162.64655479998328,162.65169309987687,162.65169309987687,162.8516214999836,162.8516214999836,162.8516214999836,162.98622229998,left,0,0.13340230006724596,None,162.99556569987908,163.00167930009775,163.00167930009775,163.98526039998978,164.0014184000902,164.0014184000902,,,,,,,,678988,,,A,001,2025-01-10_12h20.49.071,Yagmur_Final_308,2024.2.4,60.1372090367801,2025-01-10 12h20.56.364271 +0300,
images/coffee_mug.png,60,60,0,health,red,right,90,-7,left,0,left,1,0.2910515000112355,None,0,0,0,0,0,60,60,105,164.0014184000902,,,,,,,,,163.99346029991284,164.0014184000902,165.1179418999236,165.10155829996802,165.1126981000416,165.1179418999236,165.1179418999236,165.3179105001036,165.3179105001036,165.3179105001036,165.61907280003652,left,1,0.2910515000112355,None,165.63023069989868,165.63467620010488,165.63467620010488,166.6184916999191,166.63454949995503,166.63454949995503,,,,,,,,678988,,,A,001,2025-01-10_12h20.49.071,Yagmur_Final_308,2024.2.4,60.1372090367801,2025-01-10 12h20.56.364271 +0300,
images/coffee_mug.png,61,61,0,health,black,right,90,7,right,1,right,1,0.1525701000355184,None,0,0,0,0,0,61,61,47,166.63454949995503,,,,,,,,,166.62666369997896,166.63454949995503,167.78427199996077,167.76811300008558,167.77660309989005,167.78427199996077,167.78427199996077,167.98404760006815,167.98404760006815,167.98404760006815,168.1516257999465,right,1,0.1525701000355184,None,168.15988179994747,168.16756749991328,168.16756749991328,169.15143060008995,169.16744209988974,169.16744209988974,,,,,,,,678988,,,A,001,2025-01-10_12h20.49.071,Yagmur_Final_308,2024.2.4,60.1372090367801,2025-01-10 12h20.56.364271 +0300,
images/coffee_mug.png,62,62,0,gate,red,left,-90,-7,left,1,left,1,0.1401684999000281,None,0,0,0,0,0,62,62,30,169.16744209988974,,,,,,,,,169.15941670001484,169.16744209988974,170.317564799916,170.3009987999685,170.3115427000448,170.317564799916,170.317564799916,170.5171008000616,170.5171008000616,170.5171008000616,170.66820279997773,left,1,0.1401684999000281,None,170.6765586999245,170.68429460003972,170.68429460003972,171.66766509995796,171.6838442001026,171.6838442001026,,,,,,,,678988,,,A,001,2025-01-10_12h20.49.071,Yagmur_Final_308,2024.2.4,60.1372090367801,2025-01-10 12h20.56.364271 +0300,
images/coffee_mug.png,63,63,0,hate,blue,right,90,7,right,1,left,0,0.3871243998873979,None,0,0,0,0,0,63,63,37,171.6838442001026,,,,,,,,,171.67568619991653,171.6838442001026,172.73384319990873,172.71736219990999,172.7279674001038,172.73384319990873,172.73384319990873,172.9335374000948,172.9335374000948,172.9335374000948,173.33444630005397,left,0,0.3871243998873979,None,173.34558139997534,173.35025410004891,173.35025410004891,174.33407430001535,174.3503725999035,174.3503725999035,,,,,,,,678988,,,A,001,2025-01-10_12h20.49.071,Yagmur_Final_308,2024.2.4,60.1372090367801,2025-01-10 12h20.56.364271 +0300,
images/coffee_mug.png,64,64,0,health,black,right,90,-7,left,0,left,1,0.11223669978789985,None,0,0,0,0,0,64,64,119,174.3503725999035,,,,,,,,,174.34209239995107,174.3503725999035,175.61669870000333,175.60048140003346,175.61362809990533,175.61669870000333,175.61669870000333,175.81668070005253,175.81668070005253,175.81668070005253,175.93400679994375,left,1,0.11223669978789985,None,175.94485029997304,175.95017919992097,175.95017919992097,176.93349230010062,176.95000310009345,176.95000310009345,,,,,,,,678988,,,A,001,2025-01-10_12h20.49.071,Yagmur_Final_308,2024.2.4,60.1372090367801,2025-01-10 12h20.56.364271 +0300,
images/coffee_mug.png,65,65,0,gate,black,left,-90,7,right,0,left,0,0.5710148999933153,None,0,0,0,0,0,65,65,104,176.95000310009345,,,,,,,,,176.94176309998147,176.95000310009345,178.16660439991392,178.1501338998787,178.16166059998795,178.16660439991392,178.16660439991392,178.3660178000573,178.3660178000573,178.3660178000573,178.95035000005737,left,0,0.5710148999933153,None,178.96127189998515,178.96650539990515,178.96650539990515,179.94989660009742,179.9660644000396,179.9660644000396,,,,,,,,678988,,,A,001,2025-01-10_12h20.49.071,Yagmur_Final_308,2024.2.4,60.1372090367801,2025-01-10 12h20.56.364271 +0300,
images/coffee_mug.png,66,66,0,hate,blue,right,90,7,right,1,left,0,0.12675290019251406,None,0,0,0,0,0,66,66,25,179.9660644000396,,,,,,,,,179.95790480007418,179.9660644000396,181.08276219991967,181.06630959990434,181.0779240000993,181.08276219991967,181.08276219991967,181.2827147000935,181.2827147000935,181.2827147000935,181.4167134000454,left,0,0.12675290019251406,None,181.42524869996123,181.43275979999453,181.43275979999453,182.4167450000532,182.4324692999944,182.4324692999944,,,,,,,,678988,,,A,001,2025-01-10_12h20.49.071,Yagmur_Final_308,2024.2.4,60.1372090367801,2025-01-10 12h20.56.364271 +0300,
images/coffee_mug.png,67,67,0,hate,blue,right,90,7,right,1,left,0,0.03869069996289909,None,0,0,0,0,0,67,67,73,182.4324692999944,,,,,,,,,182.42874950007536,182.4324692999944,183.66567480005324,183.64933510008268,183.6578740000259,183.66567480005324,183.66567480005324,183.86534729995765,183.86534729995765,183.86534729995765,183.91632389998995,left,0,0.03869069996289909,None,183.92467970005237,183.93240509997122,183.93240509997122,184.91581319994293,184.9322925999295,184.9322925999295,,,,,,,,678988,,,A,001,2025-01-10_12h20.49.071,Yagmur_Final_308,2024.2.4,60.1372090367801,2025-01-10 12h20.56.364271 +0300,
images/coffee_mug.png,68,68,0,health,blue,right,90,7,right,1,left,0,0.11504689999856055,None,0,0,0,0,0,68,68,82,184.9322925999295,,,,,,,,,184.92391010001302,184.9322925999295,185.99866229994223,185.9823916000314,185.99345969990827,185.99866229994223,185.99866229994223,186.19852450001054,186.19852450001054,186.19852450001054,186.3160808000248,left,0,0.11504689999856055,None,186.3238643000368,186.3319671000354,186.3319671000354,187.31579399993643,187.33189089992084,187.33189089992084,,,,,,,,678988,,,A,001,2025-01-10_12h20.49.071,Yagmur_Final_308,2024.2.4,60.1372090367801,2025-01-10 12h20.56.364271 +0300,
images/coffee_mug.png,69,69,0,death,red,right,90,7,right,1,left,0,0.015188800171017647,None,0,0,0,0,0,69,69,3,187.33189089992084,,,,,,,,,187.32349279988557,187.33189089992084,188.48164950008504,188.46557869995013,188.47556539997458,188.48164950008504,188.48164950008504,188.68154460005462,188.68154460005462,188.68154460005462,188.69919529999606,left,0,0.015188800171017647,None,188.70843179989606,188.7151826999616,188.7151826999616,189.6986664000433,189.71498559997417,189.71498559997417,,,,,,,,678988,,,A,001,2025-01-10_12h20.49.071,Yagmur_Final_308,2024.2.4,60.1372090367801,2025-01-10 12h20.56.364271 +0300,
images/coffee_mug.png,70,70,0,gate,blue,right,90,-7,left,0,right,0,0.07861199998296797,None,0,0,0,0,0,70,70,115,189.71498559997417,,,,,,,,,189.70616750000045,189.71498559997417,190.9148283000104,190.89860889990814,190.9081681999378,190.9148283000104,190.9148283000104,191.11472900002263,191.11472900002263,191.11472900002263,191.1992836999707,right,0,0.07861199998296797,None,191.20782539993525,191.2147291000001,191.2147291000001,192.19810090004466,192.2145845000632,192.2145845000632,,,,,,,,678988,,,A,001,2025-01-10_12h20.49.071,Yagmur_Final_308,2024.2.4,60.1372090367801,2025-01-10 12h20.56.364271 +0300,
images/coffee_mug.png,71,71,0,death,blue,left,-90,-7,left,1,right,0,0.26692630001343787,None,0,0,0,0,0,71,71,28,192.2145845000632,,,,,,,,,192.20466009993106,192.2145845000632,193.41440830007195,193.39823590009473,193.40945210005157,193.41440830007195,193.41440830007195,193.6141005998943,193.6141005998943,193.6141005998943,193.88242250005715,right,0,0.26692630001343787,None,193.89157059998251,193.8976731998846,193.8976731998846,194.88168450002559,194.89793860004283,194.89793860004283,,,,,,,,678988,,,A,001,2025-01-10_12h20.49.071,Yagmur_Final_308,2024.2.4,60.1372090367801,2025-01-10 12h20.56.364271 +0300,
images/coffee_mug.png,72,72,0,gate,red,left,-90,7,right,0,None,0,,,0,0,0,0,0,72,72,102,194.89793860004283,,,,,,,,,194.8911747999955,194.89793860004283,196.0640437998809,196.04772299993783,196.05706189991906,196.0640437998809,196.0640437998809,196.26402230001986,196.26402230001986,196.26402230001986,198.24753189994954,None,0,,,198.25595859996974,198.2640156999696,198.2640156999696,199.24758800002746,199.26370049989782,199.26370049989782,197.26392200007103,198.2640156999696,198.2640156999696,,,,,678988,,,A,001,2025-01-10_12h20.49.071,Yagmur_Final_308,2024.2.4,60.1372090367801,2025-01-10 12h20.56.364271 +0300,
images/coffee_mug.png,73,73,0,gate,blue,left,-90,-7,left,1,left,1,0.07079720008186996,None,0,0,0,0,0,73,73,55,199.26370049989782,,,,,,,,,199.25553889991716,199.26370049989782,200.51347179990262,200.49713229993358,200.50557180005126,200.51347179990262,200.51347179990262,200.71336350007914,200.71336350007914,200.71336350007914,200.79754519998096,left,1,0.07079720008186996,None,200.808344299905,200.81362719996832,200.81362719996832,201.79770360002294,201.8169575999491,201.8169575999491,,,,,,,,678988,,,A,001,2025-01-10_12h20.49.071,Yagmur_Final_308,2024.2.4,60.1372090367801,2025-01-10 12h20.56.364271 +0300,
images/coffee_mug.png,74,74,0,death,blue,left,-90,7,right,0,right,1,0.11485429992899299,None,0,0,0,0,0,74,74,100,201.8169575999491,,,,,,,,,201.81372600002214,201.8169575999491,203.0139218000695,202.99720000009984,203.01084950007498,203.0139218000695,203.0139218000695,203.21332100010477,203.21332100010477,203.21332100010477,203.33190379990265,right,1,0.11485429992899299,None,203.3466330000665,203.35141099989414,203.35141099989414,204.34632489993237,,,,,,,,,,678988,,,A,001,2025-01-10_12h20.49.071,Yagmur_Final_308,2024.2.4,60.1372090367801,2025-01-10 12h20.56.364271 +0300,
images/coffee_mug.png,75,75,0,hate,black,right,90,7,right,1,right,1,0.10163859999738634,None,0,0,0,0,0,75,75,14,204.36316760000773,,,,,,,,,204.3544640999753,204.36316760000773,205.39620710001327,205.3802141000051,205.39224190008827,205.39620710001327,205.39620710001327,205.59605740010738,205.59605740010738,205.59605740010738,205.713692399906,right,1,0.10163859999738634,None,205.72247579996474,205.72946689999662,205.72946689999662,206.7131417999044,206.72963139996864,206.72963139996864,,,,,,,,678988,,,A,001,2025-01-10_12h20.49.071,Yagmur_Final_308,2024.2.4,60.1372090367801,2025-01-10 12h20.56.364271 +0300,
images/coffee_mug.png,76,76,0,gate,red,left,-90,-7,left,1,left,1,0.22654760000295937,None,0,0,0,0,0,76,76,42,206.72963139996864,,,,,,,,,206.72181320004165,206.72963139996864,207.86252359999344,207.84639369999059,207.85784330009483,207.86252359999344,207.86252359999344,208.06238760007545,208.06238760007545,208.06238760007545,208.296905499883,left,1,0.22654760000295937,None,208.30490290001035,208.31279430002905,208.31279430002905,209.29610310005955,209.31236639991403,209.31236639991403,,,,,,,,678988,,,A,001,2025-01-10_12h20.49.071,Yagmur_Final_308,2024.2.4,60.1372090367801,2025-01-10 12h20.56.364271 +0300,
images/coffee_mug.png,77,77,0,death,blue,left,-90,-7,left,1,right,0,0.2909430998843163,None,0,0,0,0,0,77,77,88,209.31236639991403,,,,,,,,,209.30233029997908,209.31236639991403,210.43005859991536,210.41277409996837,210.42672719992697,210.43005859991536,210.43005859991536,210.62897960003465,210.62897960003465,210.62897960003465,210.9298149999231,right,0,0.2909430998843163,None,210.9428053998854,210.94700859999284,210.94700859999284,211.94539080001414,,,,,,,,,,678988,,,A,001,2025-01-10_12h20.49.071,Yagmur_Final_308,2024.2.4,60.1372090367801,2025-01-10 12h20.56.364271 +0300,
images/coffee_mug.png,78,78,0,death,blue,left,-90,-7,left,1,left,1,0.3103008000180125,None,0,0,0,0,0,78,78,40,211.9619746999815,,,,,,,,,211.95325889997184,211.9619746999815,212.97878180001862,212.96226439997554,212.97055780002847,212.97878180001862,212.97878180001862,213.1786946998909,213.1786946998909,213.1786946998909,213.49657589988783,left,1,0.3103008000180125,None,213.51170050003566,213.51581829995848,213.51581829995848,214.51182099990547,,,,,,,,,,678988,,,A,001,2025-01-10_12h20.49.071,Yagmur_Final_308,2024.2.4,60.1372090367801,2025-01-10 12h20.56.364271 +0300,
images/coffee_mug.png,79,79,0,health,blue,right,90,7,right,1,right,1,0.16169700003229082,None,0,0,0,0,0,79,79,58,214.52864739997312,,,,,,,,,214.52089269994758,214.52864739997312,215.71185530000366,215.69531419989653,215.70618199999444,215.71185530000366,215.71185530000366,215.91138230008073,215.91138230008073,215.91138230008073,216.07895780005492,right,1,0.16169700003229082,None,216.08568820008077,216.09501320007257,216.09501320007257,217.07841329998337,217.09497689991258,217.09497689991258,,,,,,,,678988,,,A,001,2025-01-10_12h20.49.071,Yagmur_Final_308,2024.2.4,60.1372090367801,2025-01-10 12h20.56.364271 +0300,
images/coffee_mug.png,80,80,0,gate,blue,left,-90,-7,left,1,left,1,0.11340659996494651,None,0,0,0,0,0,80,80,67,217.09497689991258,,,,,,,,,217.0847074999474,217.09497689991258,218.328254400054,218.3118600999005,218.3250362998806,218.328254400054,218.328254400054,218.52774209994823,218.52774209994823,218.52774209994823,218.64575550006703,left,1,0.11340659996494651,None,218.65494040003978,218.6614133999683,218.6614133999683,219.64503409992903,219.66142160003074,219.66142160003074,,,,,,,,678988,,,A,001,2025-01-10_12h20.49.071,Yagmur_Final_308,2024.2.4,60.1372090367801,2025-01-10 12h20.56.364271 +0300,
images/coffee_mug.png,81,81,0,death,black,left,-90,-7,left,1,left,1,0.0172089000698179,None,0,0,0,0,0,81,81,53,219.66142160003074,,,,,,,,,219.65326629998162,219.66142160003074,220.7110858000815,220.69472400005907,220.70503810001537,220.7110858000815,220.7110858000815,220.9106705999002,220.9106705999002,220.9106705999002,220.94524689996615,left,1,0.0172089000698179,None,220.95540999993682,220.96104940003715,220.96104940003715,221.94494040007703,221.96074420004152,221.96074420004152,,,,,,,,678988,,,A,001,2025-01-10_12h20.49.071,Yagmur_Final_308,2024.2.4,60.1372090367801,2025-01-10 12h20.56.364271 +0300,
images/coffee_mug.png,82,82,0,health,red,right,90,7,right,1,left,0,0.006527099991217256,None,0,0,0,0,0,82,82,57,221.96074420004152,,,,,,,,,221.95468449988402,221.96074420004152,223.01143809990026,222.99476119992323,223.00813669990748,223.01143809990026,223.01143809990026,223.21043980005197,223.21043980005197,223.21043980005197,223.22796440008096,left,0,0.006527099991217256,None,223.23770779999904,223.244232499972,223.244232499972,224.22764339996502,224.24381090002134,224.24381090002134,,,,,,,,678988,,,A,001,2025-01-10_12h20.49.071,Yagmur_Final_308,2024.2.4,60.1372090367801,2025-01-10 12h20.56.364271 +0300,
images/coffee_mug.png,83,83,0,gate,black,right,90,7,right,1,left,0,0.10819649999029934,None,0,0,0,0,0,83,83,20,224.24381090002134,,,,,,,,,224.23747569997795,224.24381090002134,225.47719260002486,225.46087220008485,225.47260860004462,225.47719260002486,225.47719260002486,225.67703390005045,225.67703390005045,225.67703390005045,225.79448839998804,left,0,0.10819649999029934,None,225.8024428000208,225.81046029995196,225.81046029995196,226.79397909995168,226.81025000009686,226.81025000009686,,,,,,,,678988,,,A,001,2025-01-10_12h20.49.071,Yagmur_Final_308,2024.2.4,60.1372090367801,2025-01-10 12h20.56.364271 +0300,
images/coffee_mug.png,84,84,0,gate,black,right,90,7,right,1,left,0,0.19192679994739592,None,0,0,0,0,0,84,84,8,226.81025000009686,,,,,,,,,226.80181359988637,226.81025000009686,227.99348150007427,227.97728189988993,227.98799549997784,227.99348150007427,227.99348150007427,228.19310260005295,228.19310260005295,228.19310260005295,228.39410910010338,left,0,0.19192679994739592,None,228.40139020001516,228.41009890008718,228.41009890008718,229.3935859000776,229.40981719992124,229.40981719992124,,,,,,,,678988,,,A,001,2025-01-10_12h20.49.071,Yagmur_Final_308,2024.2.4,60.1372090367801,2025-01-10 12h20.56.364271 +0300,
images/coffee_mug.png,85,85,0,death,red,right,90,-7,left,0,left,1,0.1603730998467654,None,0,0,0,0,0,85,85,99,229.40981719992124,,,,,,,,,229.4025546000339,229.40981719992124,230.5614422999788,230.5436505000107,230.55830519995652,230.5614422999788,230.5614422999788,230.75982520007528,230.75982520007528,230.75982520007528,230.92716500000097,left,1,0.1603730998467654,None,230.93700519995764,230.9432294999715,230.9432294999715,231.92662939988077,231.94281479995698,231.94281479995698,,,,,,,,678988,,,A,001,2025-01-10_12h20.49.071,Yagmur_Final_308,2024.2.4,60.1372090367801,2025-01-10 12h20.56.364271 +0300,
images/coffee_mug.png,86,86,0,hate,black,left,-90,7,right,0,right,1,0.5941856999415904,None,0,0,0,0,0,86,86,110,231.94281479995698,,,,,,,,,231.93534639989957,231.94281479995698,233.1595890999306,233.14318550005555,233.15304980007932,233.1595890999306,233.1595890999306,233.3593921000138,233.3593921000138,233.3593921000138,233.96080509992316,right,1,0.5941856999415904,None,233.97447500005364,233.97926039993763,233.97926039993763,234.97588200005703,,,,,,,,,,678988,,,A,001,2025-01-10_12h20.49.071,Yagmur_Final_308,2024.2.4,60.1372090367801,2025-01-10 12h20.56.364271 +0300,
images/coffee_mug.png,87,87,0,hate,red,right,90,7,right,1,left,0,0.17669319990091026,None,0,0,0,0,0,87,87,36,234.99252870003693,,,,,,,,,234.9819229999557,234.99252870003693,236.19231209997088,236.17625709995627,236.1844794000499,236.19231209997088,236.19231209997088,236.39225949998945,236.39225949998945,236.39225949998945,236.57671250007115,left,0,0.17669319990091026,None,236.59226100007072,236.5968867999036,236.5968867999036,237.59225139999762,,,,,,,,,,678988,,,A,001,2025-01-10_12h20.49.071,Yagmur_Final_308,2024.2.4,60.1372090367801,2025-01-10 12h20.56.364271 +0300,
images/coffee_mug.png,88,88,0,hate,red,right,90,7,right,1,left,0,0.016640699934214354,None,0,0,0,0,0,88,88,72,237.6090490000788,,,,,,,,,237.6006022999063,237.6090490000788,238.625539700035,238.60907580005005,238.61722919996828,238.625539700035,238.625539700035,238.8253107999917,238.8253107999917,238.8253107999917,238.84356539999135,left,0,0.016640699934214354,None,238.85370129998773,238.85872810008004,238.85872810008004,239.84223140007816,239.85868229996413,239.85868229996413,,,,,,,,678988,,,A,001,2025-01-10_12h20.49.071,Yagmur_Final_308,2024.2.4,60.1372090367801,2025-01-10 12h20.56.364271 +0300,
images/coffee_mug.png,89,89,0,death,red,right,90,-7,left,0,right,0,0.3529761000536382,None,0,0,0,0,0,89,89,111,239.85868229996413,,,,,,,,,239.85031090001576,239.85868229996413,241.00831010006368,240.99214469990693,241.0028993000742,241.00831010006368,241.00831010006368,241.20804639998823,241.20804639998823,241.20804639998823,241.5760957999155,right,0,0.3529761000536382,None,241.58432179992087,241.59157090005465,241.59157090005465,242.575685699936,242.59170079999603,242.59170079999603,,,,,,,,678988,,,A,001,2025-01-10_12h20.49.071,Yagmur_Final_308,2024.2.4,60.1372090367801,2025-01-10 12h20.56.364271 +0300,
images/coffee_mug.png,90,90,0,death,red,right,90,7,right,1,left,0,0.1978953001089394,None,0,0,0,0,0,90,90,15,242.59170079999603,,,,,,,,,242.58413020009175,242.59170079999603,243.87482500006445,243.85841859993525,243.86895380006172,243.87482500006445,243.87482500006445,244.0743466001004,244.0743466001004,244.0743466001004,244.27568319998682,left,0,0.1978953001089394,None,244.28379500005394,244.29138140007854,244.29138140007854,245.27526869997382,245.29120739991777,245.29120739991777,,,,,,,,678988,,,A,001,2025-01-10_12h20.49.071,Yagmur_Final_308,2024.2.4,60.1372090367801,2025-01-10 12h20.56.364271 +0300,
images/coffee_mug.png,91,91,0,gate,blue,left,-90,-7,left,1,right,0,0.1742667998187244,None,0,0,0,0,0,91,91,7,245.29120739991777,,,,,,,,,245.2838602999691,245.29120739991777,246.49103879998438,246.4749551001005,246.4846393999178,246.49103879998438,246.49103879998438,246.69102120003663,246.69102120003663,246.69102120003663,246.87539769988507,right,0,0.1742667998187244,None,246.88427889999002,246.89140439988114,246.89140439988114,247.8747872998938,247.89091750001535,247.89091750001535,,,,,,,,678988,,,A,001,2025-01-10_12h20.49.071,Yagmur_Final_308,2024.2.4,60.1372090367801,2025-01-10 12h20.56.364271 +0300,
images/coffee_mug.png,92,92,0,gate,black,right,90,7,right,1,right,1,0.38907879986800253,None,0,0,0,0,0,92,92,56,247.89091750001535,,,,,,,,,247.88501029997133,247.89091750001535,248.94084449997172,248.92417389992625,248.93020529998466,248.94084449997172,248.94084449997172,249.1405553999357,249.1405553999357,249.1405553999357,249.54150349996053,right,1,0.38907879986800253,None,249.5511082999874,249.55747379991226,249.55747379991226,250.54096110002138,250.557382900035,250.557382900035,,,,,,,,678988,,,A,001,2025-01-10_12h20.49.071,Yagmur_Final_308,2024.2.4,60.1372090367801,2025-01-10 12h20.56.364271 +0300,
images/coffee_mug.png,93,93,0,health,blue,right,90,7,right,1,left,0,0.3079892999958247,None,0,0,0,0,0,93,93,46,250.557382900035,,,,,,,,,250.54907920002006,250.557382900035,251.74053569999523,251.72399910003878,251.7353644000832,251.74053569999523,251.74053569999523,251.9401831999421,251.9401831999421,251.9401831999421,252.25802280008793,left,0,0.3079892999958247,None,252.26768700010143,252.2736424000468,252.2736424000468,253.2570658000186,253.27363569987938,253.27363569987938,,,,,,,,678988,,,A,001,2025-01-10_12h20.49.071,Yagmur_Final_308,2024.2.4,60.1372090367801,2025-01-10 12h20.56.364271 +0300,
images/coffee_mug.png,94,94,0,death,red,right,90,7,right,1,left,0,0.148871700046584,None,0,0,0,0,0,94,94,27,253.27363569987938,,,,,,,,,253.26407440006733,253.27363569987938,254.35723199998029,254.34066089987755,254.35408010007814,254.35723199998029,254.35723199998029,254.55653570010327,254.55653570010327,254.55653570010327,254.70774649991654,left,0,0.148871700046584,None,254.7174106000457,254.7236538999714,254.7236538999714,255.70704980008304,255.7233750000596,255.7233750000596,,,,,,,,678988,,,A,001,2025-01-10_12h20.49.071,Yagmur_Final_308,2024.2.4,60.1372090367801,2025-01-10 12h20.56.364271 +0300,
images/coffee_mug.png,95,95,0,gate,red,left,-90,-7,left,1,right,0,0.154820199823007,None,0,0,0,0,0,95,95,78,255.7233750000596,,,,,,,,,255.71557040000334,255.7233750000596,256.789885800099,256.7733918998856,256.78398819989525,256.789885800099,256.789885800099,256.98939520004205,256.98939520004205,256.98939520004205,257.15718910004944,right,0,0.154820199823007,None,257.1651649000123,257.1731122999918,257.1731122999918,258.1567291999236,258.17285620002076,258.17285620002076,,,,,,,,678988,,,A,001,2025-01-10_12h20.49.071,Yagmur_Final_308,2024.2.4,60.1372090367801,2025-01-10 12h20.56.364271 +0300,
images/coffee_mug.png,96,96,0,hate,black,right,90,7,right,1,left,0,0.07359530008397996,None,0,0,0,0,0,96,96,74,258.17285620002076,,,,,,,,,258.1637079999782,258.17285620002076,259.2561848999467,259.24013769999146,259.25031500007026,259.2561848999467,259.2561848999467,259.45592430001125,259.45592430001125,259.45592430001125,259.54059939994477,left,0,0.07359530008397996,None,259.55131260002963,259.5563519001007,259.5563519001007,260.5399909999687,260.55604130006395,260.55604130006395,,,,,,,,678988,,,A,001,2025-01-10_12h20.49.071,Yagmur_Final_308,2024.2.4,60.1372090367801,2025-01-10 12h20.56.364271 +0300,
images/coffee_mug.png,97,97,0,death,blue,left,-90,-7,left,1,left,1,0.05664309998974204,None,0,0,0,0,0,97,97,52,260.55604130006395,,,,,,,,,260.5491522999946,260.55604130006395,261.6893176001031,261.6728546998929,261.6828606000636,261.6893176001031,261.6893176001031,261.88894110010006,261.88894110010006,261.88894110010006,261.9567319001071,left,1,0.05664309998974204,None,261.9692200999707,261.9733551000245,261.9733551000245,262.9722376000136,,,,,,,,,,678988,,,A,001,2025-01-10_12h20.49.071,Yagmur_Final_308,2024.2.4,60.1372090367801,2025-01-10 12h20.56.364271 +0300,
images/coffee_mug.png,98,98,0,health,black,right,90,7,right,1,right,1,0.23094599996693432,None,0,0,0,0,0,98,98,11,262.98921069991775,,,,,,,,,262.980961299967,262.98921069991775,264.1222065000329,264.10577729996294,264.1145452000201,264.1222065000329,264.1222065000329,264.321970500052,264.321970500052,264.321970500052,264.55630049994215,right,1,0.23094599996693432,None,264.56594150001183,264.5722111999057,264.5722111999057,265.55587209993973,265.5719935998786,265.5719935998786,,,,,,,,678988,,,A,001,2025-01-10_12h20.49.071,Yagmur_Final_308,2024.2.4,60.1372090367801,2025-01-10 12h20.56.364271 +0300,
images/coffee_mug.png,99,99,0,health,blue,left,-90,7,right,0,left,0,0.09446930000558496,None,0,0,0,0,0,99,99,118,265.5719935998786,,,,,,,,,265.5652028999757,265.5719935998786,266.7552380000707,266.7390264000278,266.74763919995166,266.7552380000707,266.7552380000707,266.9550312999636,266.9550312999636,266.9550312999636,267.0557124998886,left,0,0.09446930000558496,None,267.06398029997945,267.07181430002674,267.07181430002674,268.0556101000402,268.0715526000131,268.0715526000131,,,,,,,,678988,,,A,001,2025-01-10_12h20.49.071,Yagmur_Final_308,2024.2.4,60.1372090367801,2025-01-10 12h20.56.364271 +0300,
images/coffee_mug.png,100,100,0,hate,red,right,90,7,right,1,left,0,0.03593640006147325,None,0,0,0,0,0,100,100,0,268.0715526000131,,,,,,,,,268.0644268998876,268.0715526000131,269.2216725999024,269.2053306000307,269.21854809997603,269.2216725999024,269.2216725999024,269.4213328999467,269.4213328999467,269.4213328999467,269.47251249989495,left,0,0.03593640006147325,None,269.4834588000085,269.4880621000193,269.4880621000193,270.4719438999891,270.48798960004933,270.48798960004933,,,,,,,,678988,,,A,001,2025-01-10_12h20.49.071,Yagmur_Final_308,2024.2.4,60.1372090367801,2025-01-10 12h20.56.364271 +0300,
images/coffee_mug.png,101,101,0,hate,black,right,90,7,right,1,left,0,0.1062368000857532,None,0,0,0,0,0,101,101,38,270.48798960004933,,,,,,,,,270.4810671999585,270.48798960004933,271.6710721999407,271.6549040998798,271.66357279988006,271.6710721999407,271.6710721999407,271.87108430010267,271.87108430010267,271.87108430010267,271.98848269996233,left,0,0.1062368000857532,None,271.9971485999413,272.0045578998979,272.0045578998979,272.9881561999209,273.00428249989636,273.00428249989636,,,,,,,,678988,,,A,001,2025-01-10_12h20.49.071,Yagmur_Final_308,2024.2.4,60.1372090367801,2025-01-10 12h20.56.364271 +0300,
images/coffee_mug.png,102,102,0,health,red,right,90,7,right,1,right,1,0.04468849999830127,None,0,0,0,0,0,102,102,81,273.00428249989636,,,,,,,,,272.9961900000926,273.00428249989636,274.2218784999568,274.2048380000051,274.218645399902,274.2218784999568,274.2218784999568,274.4206364999991,274.4206364999991,274.4206364999991,274.47171849990264,right,1,0.04468849999830127,None,274.48417460010387,274.4881988998968,274.4881988998968,275.48728789994493,,,,,,,,,,678988,,,A,001,2025-01-10_12h20.49.071,Yagmur_Final_308,2024.2.4,60.1372090367801,2025-01-10 12h20.56.364271 +0300,
images/coffee_mug.png,103,103,0,health,black,right,90,7,right,1,right,1,0.21458590007387102,None,0,0,0,0,0,103,103,71,275.50426779990084,,,,,,,,,275.49447640008293,275.50426779990084,276.5540267000906,276.5377020998858,276.547317000106,276.5540267000906,276.5540267000906,276.75354079995304,276.75354079995304,276.75354079995304,276.9710727999918,right,1,0.21458590007387102,None,276.97751029999927,276.9872755999677,276.9872755999677,277.97072970005684,277.98702779994346,277.98702779994346,,,,,,,,678988,,,A,001,2025-01-10_12h20.49.071,Yagmur_Final_308,2024.2.4,60.1372090367801,2025-01-10 12h20.56.364271 +0300,
images/coffee_mug.png,104,104,0,death,black,left,-90,-7,left,1,left,1,0.029625799972563982,None,0,0,0,0,0,104,104,5,277.98702779994346,,,,,,,,,277.9771660999395,277.98702779994346,279.1868938000407,279.1709088999778,279.1802483999636,279.1868938000407,279.1868938000407,279.3865296000149,279.3865296000149,279.3865296000149,279.42106530000456,left,1,0.029625799972563982,None,279.42912329989485,279.43679709988646,279.43679709988646,280.4206918999553,280.4368288000114,280.4368288000114,,,,,,,,678988,,,A,001,2025-01-10_12h20.49.071,Yagmur_Final_308,2024.2.4,60.1372090367801,2025-01-10 12h20.56.364271 +0300,
images/coffee_mug.png,105,105,0,hate,black,right,90,7,right,1,left,0,0.18742470000870526,None,0,0,0,0,0,105,105,62,280.4368288000114,,,,,,,,,280.4296407001093,280.4368288000114,281.6701962999068,281.6537460000254,281.66350900009274,281.6701962999068,281.6701962999068,281.86960750003345,281.86960750003345,281.86960750003345,282.0703777000308,left,0,0.18742470000870526,None,282.0787345999852,282.08662070007995,282.08662070007995,283.07028830004856,283.08657409995794,283.08657409995794,,,,,,,,678988,,,A,001,2025-01-10_12h20.49.071,Yagmur_Final_308,2024.2.4,60.1372090367801,2025-01-10 12h20.56.364271 +0300,
images/coffee_mug.png,106,106,0,gate,black,right,90,7,right,1,right,1,0.20631839986890554,None,0,0,0,0,0,106,106,32,283.08657409995794,,,,,,,,,283.0789550000336,283.08657409995794,284.21950170001946,284.2035036999732,284.21516990009695,284.21950170001946,284.21950170001946,284.4192234000657,284.4192234000657,284.4192234000657,284.63683709991165,right,1,0.20631839986890554,None,284.64829639997333,284.6527917999774,284.6527917999774,285.6367126998957,285.6528686999809,285.6528686999809,,,,,,,,678988,,,A,001,2025-01-10_12h20.49.071,Yagmur_Final_308,2024.2.4,60.1372090367801,2025-01-10 12h20.56.364271 +0300,
images/coffee_mug.png,107,107,0,death,blue,left,-90,-7,left,1,right,0,0.2500821000430733,None,0,0,0,0,0,107,107,4,285.6528686999809,,,,,,,,,285.64714920008555,285.6528686999809,286.6861711998936,286.6696576999966,286.68130049994215,286.6861711998936,286.6861711998936,286.886078099953,286.886078099953,286.886078099953,287.15344060002826,right,0,0.2500821000430733,None,287.16465219995007,287.1696651999373,287.1696651999373,288.1526496000588,288.1690450999886,288.1690450999886,,,,,,,,678988,,,A,001,2025-01-10_12h20.49.071,Yagmur_Final_308,2024.2.4,60.1372090367801,2025-01-10 12h20.56.364271 +0300,
images/coffee_mug.png,108,108,0,hate,blue,right,90,7,right,1,left,0,0.1923426000867039,None,0,0,0,0,0,108,108,61,288.1690450999886,,,,,,,,,288.16075920010917,288.1690450999886,289.3688260000199,289.3527591000311,289.36417940002866,289.3688260000199,289.3688260000199,289.5688028000295,289.5688028000295,289.5688028000295,289.77003820007667,left,0,0.1923426000867039,None,289.780906900065,289.78551779990084,289.78551779990084,290.76999530009925,290.7854484000709,290.7854484000709,,,,,,,,678988,,,A,001,2025-01-10_12h20.49.071,Yagmur_Final_308,2024.2.4,60.1372090367801,2025-01-10 12h20.56.364271 +0300,
images/coffee_mug.png,109,109,0,death,black,left,-90,-7,left,1,left,1,0.03700320003554225,None,0,0,0,0,0,109,109,77,290.7854484000709,,,,,,,,,290.78039909992367,290.7854484000709,292.0518360999413,292.0352864000015,292.0464331000112,292.0518360999413,292.0518360999413,292.25148550001904,292.25148550001904,292.25148550001904,292.3022958000656,left,1,0.03700320003554225,None,292.31396299996413,292.31852660002187,292.31852660002187,293.30187859991565,293.3183385999873,293.3183385999873,,,,,,,,678988,,,A,001,2025-01-10_12h20.49.071,Yagmur_Final_308,2024.2.4,60.1372090367801,2025-01-10 12h20.56.364271 +0300,
images/coffee_mug.png,110,110,0,death,red,right,90,7,right,1,left,0,0.09082599985413253,None,0,0,0,0,0,110,110,51,293.3183385999873,,,,,,,,,293.3102663999889,293.3183385999873,294.53493439988233,294.518268099986,294.5277913999744,294.53493439988233,294.53493439988233,294.7348394000437,294.7348394000437,294.7348394000437,294.8358126000967,left,0,0.09082599985413253,None,294.8490118999034,294.8531949999742,294.8531949999742,295.85159450001083,,,,,,,,,,678988,,,A,001,2025-01-10_12h20.49.071,Yagmur_Final_308,2024.2.4,60.1372090367801,2025-01-10 12h20.56.364271 +0300,
images/coffee_mug.png,111,111,0,death,black,left,-90,-7,left,1,left,1,0.6474385000765324,None,0,0,0,0,0,111,111,17,295.8680227000732,,,,,,,,,295.86248870007694,295.8680227000732,297.03538449993357,297.01832780009136,297.03246539994143,297.03538449993357,297.03538449993357,297.23425720003434,297.23425720003434,297.23425720003434,297.88547539990395,left,1,0.6474385000765324,None,297.8990738000721,297.9032858000137,297.9032858000137,298.9012599999551,,,,,,,,,,678988,,,A,001,2025-01-10_12h20.49.071,Yagmur_Final_308,2024.2.4,60.1372090367801,2025-01-10 12h20.56.364271 +0300,
images/coffee_mug.png,112,112,0,hate,black,right,90,7,right,1,left,0,0.28013999992981553,None,0,0,0,0,0,112,112,2,298.917704799911,,,,,,,,,298.9117660999764,298.917704799911,300.01752489991486,300.0011990000494,300.0139756000135,300.01752489991486,300.01752489991486,300.21722309989855,300.21722309989855,300.21722309989855,300.5016741999425,left,0,0.28013999992981553,None,300.5147969000973,300.5188319000881,300.5188319000881,301.5174835000653,,,,,,,,,,678988,,,A,001,2025-01-10_12h20.49.071,Yagmur_Final_308,2024.2.4,60.1372090367801,2025-01-10 12h20.56.364271 +0300,
images/coffee_mug.png,113,113,0,gate,red,left,-90,-7,left,1,left,1,0.32800410012714565,None,0,0,0,0,0,113,113,18,301.5339864999987,,,,,,,,,301.527706899913,301.5339864999987,302.6341375000775,302.617629900109,302.62912090006284,302.6341375000775,302.6341375000775,302.8336900998838,302.8336900998838,302.8336900998838,303.167988399975,left,1,0.32800410012714565,None,303.1789162000641,303.1840999999549,303.1840999999549,304.1677449999843,304.18363710003905,304.18363710003905,,,,,,,,678988,,,A,001,2025-01-10_12h20.49.071,Yagmur_Final_308,2024.2.4,60.1372090367801,2025-01-10 12h20.56.364271 +0300,
images/coffee_mug.png,114,114,0,health,red,right,90,7,right,1,left,0,0.8056465000845492,None,0,0,0,0,0,114,114,69,304.18363710003905,,,,,,,,,304.1770659000613,304.18363710003905,305.2836756000761,305.2671364999842,305.2779578999616,305.2836756000761,305.2836756000761,305.48326699994504,305.48326699994504,305.48326699994504,306.3011097998824,left,0,0.8056465000845492,None,306.31233759992756,306.3168301999103,306.3168301999103,307.30049549997784,307.3167181001045,307.3167181001045,,,,,,,,678988,,,A,001,2025-01-10_12h20.49.071,Yagmur_Final_308,2024.2.4,60.1372090367801,2025-01-10 12h20.56.364271 +0300,
images/coffee_mug.png,115,115,0,health,black,right,90,7,right,1,left,0,0.14991250005550683,None,0,0,0,0,0,115,115,59,307.3167181001045,,,,,,,,,307.30959179997444,307.3167181001045,308.46659309999086,308.45035229995847,308.4600865000393,308.46659309999086,308.46659309999086,308.6662681000307,308.6662681000307,308.6662681000307,308.8175140998792,left,0,0.14991250005550683,None,308.8271353999153,308.8332539999392,308.8332539999392,309.81698979996145,309.833009700058,309.833009700058,,,,,,,,678988,,,A,001,2025-01-10_12h20.49.071,Yagmur_Final_308,2024.2.4,60.1372090367801,2025-01-10 12h20.56.364271 +0300,
images/coffee_mug.png,116,116,0,hate,red,right,90,7,right,1,right,1,0.10024479986168444,None,0,0,0,0,0,116,116,24,309.833009700058,,,,,,,,,309.825598299969,309.833009700058,310.9173196000047,310.90029940009117,310.913767100079,310.9173196000047,310.9173196000047,311.11620109993964,311.11620109993964,311.11620109993964,311.2337170999963,right,1,0.10024479986168444,None,311.2447573998943,311.24981949990615,311.24981949990615,312.233188000042,312.2493682000786,312.2493682000786,,,,,,,,678988,,,A,001,2025-01-10_12h20.49.071,Yagmur_Final_308,2024.2.4,60.1372090367801,2025-01-10 12h20.56.364271 +0300,
images/coffee_mug.png,117,117,0,hate,black,right,90,7,right,1,right,1,0.15879300003871322,None,0,0,0,0,0,117,117,26,312.2493682000786,,,,,,,,,312.24141869996674,312.2493682000786,313.2824983999599,313.2663265001029,313.2755096000619,313.2824983999599,313.2824983999599,313.4823710999917,313.4823710999917,313.4823710999917,313.6499695999082,right,1,0.15879300003871322,None,313.6583974000532,313.66579300002195,313.66579300002195,314.64958070009016,314.6659673000686,314.6659673000686,,,,,,,,678988,,,A,001,2025-01-10_12h20.49.071,Yagmur_Final_308,2024.2.4,60.1372090367801,2025-01-10 12h20.56.364271 +0300,
images/coffee_mug.png,118,118,0,death,black,right,90,-7,left,0,left,1,0.352025399915874,None,0,0,0,0,0,118,118,101,314.6659673000686,,,,,,,,,314.6586718999315,314.6659673000686,315.8656848000828,315.84942659991793,315.86145889991894,315.8656848000828,315.8656848000828,316.0651698000729,316.0651698000729,316.0651698000729,316.43295069993474,left,1,0.352025399915874,None,316.44180690008216,316.4487993000075,316.4487993000075,317.43289280007593,317.4488387000747,317.4488387000747,,,,,,,,678988,,,A,001,2025-01-10_12h20.49.071,Yagmur_Final_308,2024.2.4,60.1372090367801,2025-01-10 12h20.56.364271 +0300,
images/coffee_mug.png,119,119,0,health,red,right,90,-7,left,0,left,1,0.694770900066942,None,0,0,0,0,0,119,119,117,317.4488387000747,,,,,,,,,317.4426231000107,317.4488387000747,318.7152160999831,318.69888640008867,318.71121970005333,318.7152160999831,318.7152160999831,318.91492890007794,318.91492890007794,318.91492890007794,319.6161589999683,left,1,0.694770900066942,None,319.62673570006154,319.6316408999264,319.6316408999264,320.61528420005925,320.68760129995644,320.68760129995644,,,,,,,,678988,,,A,001,2025-01-10_12h20.49.071,Yagmur_Final_308,2024.2.4,60.1372090367801,2025-01-10 12h20.56.364271 +0300,
images/coffee_mug.png,0,0,0,,,,,,,,,,,,0,0,0,0,,,,,,,,,,,,,,,,,,,,,,,,,,,,,,,,,,,,,,,,,,678988,,,A,001,2025-01-10_12h20.49.071,Yagmur_Final_308,2024.2.4,60.1372090367801,2025-01-10 12h20.56.364271 +0300,
images/gun.png,0,0,0,health,red,right,90,7,right,1,right,1,0.5087464000098407,None,0,1,1,1,0,0,0,69,320.68760129995644,,,,,,,,,320.6845684000291,320.68760129995644,321.7653467000928,321.7485587000847,321.75383289996535,321.7653467000928,321.7653467000928,321.96487080003135,321.96487080003135,321.96487080003135,322.4822215999011,right,1,0.5087464000098407,None,322.48669179994613,322.4984597999137,322.4984597999137,323.48168769991025,323.4977967001032,323.4977967001032,,,,,,,,678988,,,A,001,2025-01-10_12h20.49.071,Yagmur_Final_308,2024.2.4,60.1372090367801,2025-01-10 12h20.56.364271 +0300,
images/gun.png,1,1,0,health,blue,left,-90,7,right,0,left,0,0.1996583000291139,None,0,1,1,1,0,1,1,106,323.4977967001032,,,,,,,,,323.4850623998791,323.4977967001032,324.69766730000265,324.6817036999855,324.685830200091,324.69766730000265,324.69766730000265,324.8976104001049,324.8976104001049,324.8976104001049,325.0987303999718,left,0,0.1996583000291139,None,325.105438800063,325.114404699998,325.114404699998,326.0979138999246,326.11430960008875,326.11430960008875,,,,,,,,678988,,,A,001,2025-01-10_12h20.49.071,Yagmur_Final_308,2024.2.4,60.1372090367801,2025-01-10 12h20.56.364271 +0300,
images/gun.png,2,2,0,hate,red,right,90,7,right,1,right,1,0.4911795000080019,None,0,1,1,1,0,2,2,36,326.11430960008875,,,,,,,,,326.10129310004413,326.11430960008875,327.4306306000799,327.4144297000021,327.4202868998982,327.4306306000799,327.4306306000799,327.630395000102,327.630395000102,327.630395000102,328.1314729000442,right,1,0.4911795000080019,None,328.1373423000332,328.1473362999968,328.1473362999968,329.13114230008796,329.147025299957,329.147025299957,,,,,,,,678988,,,A,001,2025-01-10_12h20.49.071,Yagmur_Final_308,2024.2.4,60.1372090367801,2025-01-10 12h20.56.364271 +0300,
images/gun.png,3,3,0,death,red,right,90,7,right,1,right,1,0.2259638998657465,None,0,1,1,1,0,3,3,75,329.147025299957,,,,,,,,,329.1344647000078,329.147025299957,330.2638425999321,330.2475807000883,330.2546512999106,330.2638425999321,330.2638425999321,330.463458500104,330.463458500104,330.463458500104,330.69784009992145,right,1,0.2259638998657465,None,330.7019501000177,330.71380640007555,330.71380640007555,331.6974198000971,331.71339809987694,331.71339809987694,,,,,,,,678988,,,A,001,2025-01-10_12h20.49.071,Yagmur_Final_308,2024.2.4,60.1372090367801,2025-01-10 12h20.56.364271 +0300,
images/gun.png,4,4,0,gate,blue,left,-90,-7,left,1,None,0,,,0,1,1,1,0,4,4,79,331.71339809987694,,,,,,,,,331.70118439989164,331.71339809987694,332.846567499917,332.8305393999908,332.83754219999537,332.846567499917,332.846567499917,333.0465285999235,333.0465285999235,333.0465285999235,335.03041550004855,None,0,,,335.03699980000965,335.0465112000238,335.0465112000238,336.0302553998772,336.046341399895,336.046341399895,334.0463330000639,335.0465112000238,335.0465112000238,,,,,678988,,,A,001,2025-01-10_12h20.49.071,Yagmur_Final_308,2024.2.4,60.1372090367801,2025-01-10 12h20.56.364271 +0300,
images/gun.png,5,5,0,health,blue,right,90,7,right,1,left,0,0.0540374000556767,None,0,1,1,1,0,5,5,94,336.046341399895,,,,,,,,,336.03411350003444,336.046341399895,337.1794511000626,337.16329420008697,337.1708927999716,337.1794511000626,337.1794511000626,337.3793794999365,337.3793794999365,337.3793794999365,337.4475674999412,left,0,0.0540374000556767,None,337.4521077000536,337.4626654998865,337.4626654998865,338.4465695999097,338.46281359996647,338.46281359996647,,,,,,,,678988,,,A,001,2025-01-10_12h20.49.071,Yagmur_Final_308,2024.2.4,60.1372090367801,2025-01-10 12h20.56.364271 +0300,
images/gun.png,6,6,0,death,red,right,90,7,right,1,right,1,0.19904000009410083,None,0,1,1,1,0,6,6,3,338.46281359996647,,,,,,,,,338.45086489990354,338.46281359996647,339.56259249988943,339.54631530004553,339.5546901000198,339.56259249988943,339.56259249988943,339.7622038000263,339.7622038000263,339.7622038000263,339.9636864999775,right,1,0.19904000009410083,None,339.97082039993256,339.9792790999636,339.9792790999636,340.96287030004896,340.97907379991375,340.97907379991375,,,,,,,,678988,,,A,001,2025-01-10_12h20.49.071,Yagmur_Final_308,2024.2.4,60.1372090367801,2025-01-10 12h20.56.364271 +0300,
images/gun.png,7,7,0,death,blue,left,-90,-7,left,1,left,1,0.2667652000673115,None,0,1,1,1,0,7,7,64,340.97907379991375,,,,,,,,,340.96720300009474,340.97907379991375,342.062351499917,342.04606510000303,342.050700499909,342.062351499917,342.062351499917,342.2620125999674,342.2620125999674,342.2620125999674,342.5299784000963,left,1,0.2667652000673115,None,342.53446140000597,342.5454931000713,342.5454931000713,343.52949570002966,343.5452690999955,343.5452690999955,,,,,,,,678988,,,A,001,2025-01-10_12h20.49.071,Yagmur_Final_308,2024.2.4,60.1372090367801,2025-01-10 12h20.56.364271 +0300,
images/gun.png,8,8,0,death,blue,left,-90,-7,left,1,right,0,0.29569100006483495,None,0,1,1,1,0,8,8,40,343.5452690999955,,,,,,,,,343.5338481999934,343.5452690999955,344.7284442000091,344.7128858999349,344.72023370000534,344.7284442000091,344.7284442000091,344.9283829999622,344.9283829999622,344.9283829999622,345.22925779991783,right,0,0.29569100006483495,None,345.2360898000188,345.2451855998952,345.2451855998952,346.22894959989935,346.2449634000659,346.2449634000659,,,,,,,,678988,,,A,001,2025-01-10_12h20.49.071,Yagmur_Final_308,2024.2.4,60.1372090367801,2025-01-10 12h20.56.364271 +0300,
images/gun.png,9,9,0,gate,blue,right,90,-7,left,0,left,1,0.11351859988644719,None,0,1,1,1,0,9,9,115,346.2449634000659,,,,,,,,,346.2327125000302,346.2449634000659,347.29472570004873,347.2787605000194,347.28448239993304,347.29472570004873,347.29472570004873,347.4947293999139,347.4947293999139,347.4947293999139,347.61284469999373,left,1,0.11351859988644719,None,347.62043310003355,347.6281961998902,347.6281961998902,348.61200250010006,348.62789499992505,348.62789499992505,,,,,,,,678988,,,A,001,2025-01-10_12h20.49.071,Yagmur_Final_308,2024.2.4,60.1372090367801,2025-01-10 12h20.56.364271 +0300,
images/gun.png,10,10,0,hate,blue,right,90,7,right,1,left,0,0.18476820015348494,None,0,1,1,1,0,10,10,85,348.62789499992505,,,,,,,,,348.61680929991417,348.62789499992505,349.7279779999517,349.7115146999713,349.71742959995754,349.7279779999517,349.7279779999517,349.92791850003414,349.92791850003414,349.92791850003414,350.12877049995586,left,0,0.18476820015348494,None,350.1348391000647,350.1444641998969,350.1444641998969,351.1282200999558,351.14457849995233,351.14457849995233,,,,,,,,678988,,,A,001,2025-01-10_12h20.49.071,Yagmur_Final_308,2024.2.4,60.1372090367801,2025-01-10 12h20.56.364271 +0300,
images/gun.png,11,11,0,health,black,right,90,7,right,1,left,0,0.10472760000266135,None,0,1,1,1,0,11,11,71,351.14457849995233,,,,,,,,,351.13174080010504,351.14457849995233,352.3609766999725,352.3447769000195,352.35388320009224,352.3609766999725,352.3609766999725,352.5609053999651,352.5609053999651,352.5609053999651,352.67844110005535,left,0,0.10472760000266135,None,352.6830029000994,352.6942567001097,352.6942567001097,353.6778390998952,353.6939967998769,353.6939967998769,,,,,,,,678988,,,A,001,2025-01-10_12h20.49.071,Yagmur_Final_308,2024.2.4,60.1372090367801,2025-01-10 12h20.56.364271 +0300,
images/gun.png,12,12,0,hate,blue,right,90,7,right,1,right,1,0.4075965001247823,None,0,1,1,1,0,12,12,1,353.6939967998769,,,,,,,,,353.68142729997635,353.6939967998769,355.01093210000545,354.9944152000826,355.0004306000192,355.01093210000545,355.01093210000545,355.2103752999101,355.2103752999101,355.2103752999101,355.6300631999038,right,1,0.4075965001247823,None,355.64001429989,355.6439233000856,355.6439233000856,356.6276676999405,356.64357670000754,356.64357670000754,,,,,,,,678988,,,A,001,2025-01-10_12h20.49.071,Yagmur_Final_308,2024.2.4,60.1372090367801,2025-01-10 12h20.56.364271 +0300,
images/gun.png,13,13,0,health,red,right,90,7,right,1,left,0,0.25044160010293126,None,0,1,1,1,0,13,13,93,356.64357670000754,,,,,,,,,356.6319846000988,356.64357670000754,357.7436134000309,357.727353699971,357.7350302999839,357.7436134000309,357.7436134000309,357.9433243998792,357.9433243998792,357.9433243998792,358.1950397999026,left,0,0.25044160010293126,None,358.2023070000578,358.2102481001057,358.2102481001057,359.1940425999928,359.2103053999599,359.2103053999599,,,,,,,,678988,,,A,001,2025-01-10_12h20.49.071,Yagmur_Final_308,2024.2.4,60.1372090367801,2025-01-10 12h20.56.364271 +0300,
images/gun.png,14,14,0,hate,blue,right,90,7,right,1,left,0,0.3810651998501271,None,0,1,1,1,0,14,14,61,359.2103053999599,,,,,,,,,359.1978629999794,359.2103053999599,360.27642669994384,360.26030489988625,360.26719089993276,360.27642669994384,360.27642669994384,360.4763638000004,360.4763638000004,360.4763638000004,360.86083119991235,left,0,0.3810651998501271,None,360.86490730009973,360.8764154999517,360.8764154999517,361.8601524999831,361.8764321000781,361.8764321000781,,,,,,,,678988,,,A,001,2025-01-10_12h20.49.071,Yagmur_Final_308,2024.2.4,60.1372090367801,2025-01-10 12h20.56.364271 +0300,
images/gun.png,15,15,0,gate,red,left,-90,-7,left,1,right,0,0.2618178001139313,None,0,1,1,1,0,15,15,30,361.8764321000781,,,,,,,,,361.8648562999442,361.8764321000781,363.05954129993916,363.0434147999622,363.05013999994844,363.05954129993916,363.05954129993916,363.25955080008134,363.25955080008134,363.25955080008134,363.5270875999704,right,0,0.2618178001139313,None,363.5311757000163,363.54269780009054,363.54269780009054,364.526359600015,364.54277310008183,364.54277310008183,,,,,,,,678988,,,A,001,2025-01-10_12h20.49.071,Yagmur_Final_308,2024.2.4,60.1372090367801,2025-01-10 12h20.56.364271 +0300,
images/gun.png,16,16,0,gate,black,right,90,7,right,1,right,1,0.10822219983674586,None,0,1,1,1,0,16,16,56,364.54277310008183,,,,,,,,,364.5312067999039,364.54277310008183,365.69246140006,365.67656400008127,365.6823998999316,365.69246140006,365.69246140006,365.89223910006694,365.89223910006694,365.89223910006694,366.00988300004974,right,1,0.10822219983674586,None,366.0174746999983,366.0259467998985,366.0259467998985,367.0097974999808,367.0257109000813,367.0257109000813,,,,,,,,678988,,,A,001,2025-01-10_12h20.49.071,Yagmur_Final_308,2024.2.4,60.1372090367801,2025-01-10 12h20.56.364271 +0300,
images/gun.png,17,17,0,gate,blue,right,90,-7,left,0,left,1,0.026827699970453978,None,0,1,1,1,0,17,17,103,367.0257109000813,,,,,,,,,367.0144710999448,367.0257109000813,368.15896390005946,368.1426115001086,368.14634549990296,368.15896390005946,368.15896390005946,368.35863959998824,368.35863959998824,368.35863959998824,368.39332000003196,left,1,0.026827699970453978,None,368.39859879994765,368.4087908999063,368.4087908999063,369.39264860004187,369.4088872000575,369.4088872000575,,,,,,,,678988,,,A,001,2025-01-10_12h20.49.071,Yagmur_Final_308,2024.2.4,60.1372090367801,2025-01-10 12h20.56.364271 +0300,
images/gun.png,18,18,0,death,blue,left,-90,-7,left,1,right,0,0.13964169984683394,None,0,1,1,1,0,18,18,52,369.4088872000575,,,,,,,,,369.3968974999152,369.4088872000575,370.50858230004087,370.4924109999556,370.50000289990567,370.50858230004087,370.50858230004087,370.70855510002,370.70855510002,370.70855510002,370.85974589991383,right,0,0.13964169984683394,None,370.8673684000969,370.87521529989317,370.87521529989317,371.85899040009826,371.87495899992064,371.87495899992064,,,,,,,,678988,,,A,001,2025-01-10_12h20.49.071,Yagmur_Final_308,2024.2.4,60.1372090367801,2025-01-10 12h20.56.364271 +0300,
images/gun.png,19,19,0,death,red,right,90,-7,left,0,right,0,0.05280389986000955,None,0,1,1,1,0,19,19,111,371.87495899992064,,,,,,,,,371.86260679992847,371.87495899992064,372.89175530010834,372.8753601999488,372.87908539990894,372.89175530010834,372.89175530010834,373.09139370010234,373.09139370010234,373.09139370010234,373.1591550000012,right,0,0.05280389986000955,None,373.1627108999528,373.17479610000737,373.17479610000737,374.15874040010385,374.1749762000982,374.1749762000982,,,,,,,,678988,,,A,001,2025-01-10_12h20.49.071,Yagmur_Final_308,2024.2.4,60.1372090367801,2025-01-10 12h20.56.364271 +0300,
images/gun.png,20,20,0,hate,blue,right,90,7,right,1,left,0,0.33537790016271174,None,0,1,1,1,0,20,20,49,374.1749762000982,,,,,,,,,374.16307269991376,374.1749762000982,375.4580055999104,375.441599200014,375.44845349993557,375.4580055999104,375.4580055999104,375.65795379993506,375.65795379993506,375.65795379993506,376.0088744000532,left,0,0.33537790016271174,None,376.0124796999153,376.02444180008024,376.02444180008024,377.00821159989573,377.0242941000033,377.0242941000033,,,,,,,,678988,,,A,001,2025-01-10_12h20.49.071,Yagmur_Final_308,2024.2.4,60.1372090367801,2025-01-10 12h20.56.364271 +0300,
images/gun.png,21,21,0,death,red,right,90,7,right,1,left,0,0.05435150000266731,None,0,1,1,1,0,21,21,51,377.0242941000033,,,,,,,,,377.01162029989064,377.0242941000033,378.0746001000516,378.0581606000196,378.0651895001065,378.0746001000516,378.0746001000516,378.2741483000573,378.2741483000573,378.2741483000573,378.34218930010684,left,0,0.05435150000266731,None,378.3466743999161,378.35773189994507,378.35773189994507,379.34115269989707,379.3575337000657,379.3575337000657,,,,,,,,678988,,,A,001,2025-01-10_12h20.49.071,Yagmur_Final_308,2024.2.4,60.1372090367801,2025-01-10 12h20.56.364271 +0300,
images/gun.png,22,22,0,health,black,right,90,7,right,1,left,0,0.1279007000848651,None,0,1,1,1,0,22,22,59,379.3575337000657,,,,,,,,,379.34502050001174,379.3575337000657,380.47388869989663,380.4578098000493,380.46493860008195,380.47388869989663,380.47388869989663,380.67383940005675,380.67383940005675,380.67383940005675,380.80806559999473,left,0,0.1279007000848651,None,380.81201920006424,380.8239508999977,380.8239508999977,381.8078131999355,381.82374639995396,381.82374639995396,,,,,,,,678988,,,A,001,2025-01-10_12h20.49.071,Yagmur_Final_308,2024.2.4,60.1372090367801,2025-01-10 12h20.56.364271 +0300,
images/gun.png,23,23,0,death,blue,left,-90,-7,left,1,left,1,0.09790220018476248,None,0,1,1,1,0,23,23,4,381.82374639995396,,,,,,,,,381.81161740003154,381.82374639995396,383.02381510008126,383.00750699988566,383.01492960006,383.02381510008126,383.02381510008126,383.2236303000245,383.2236303000245,383.2236303000245,383.3244294000324,left,1,0.09790220018476248,None,383.33145749988034,383.34046850004233,383.34046850004233,384.3239867000375,384.34007390006445,384.34007390006445,,,,,,,,678988,,,A,001,2025-01-10_12h20.49.071,Yagmur_Final_308,2024.2.4,60.1372090367801,2025-01-10 12h20.56.364271 +0300,
images/gun.png,24,24,0,hate,blue,right,90,7,right,1,left,0,0.14706730004400015,None,0,1,1,1,0,24,24,13,384.34007390006445,,,,,,,,,384.328521899879,384.34007390006445,385.39018870005384,385.37379970005713,385.3803097999189,385.39018870005384,385.39018870005384,385.58975229994394,385.58975229994394,385.58975229994394,385.7410315000452,left,0,0.14706730004400015,None,385.74758829991333,385.7567437000107,385.7567437000107,386.74034109991044,386.75670380005613,386.75670380005613,,,,,,,,678988,,,A,001,2025-01-10_12h20.49.071,Yagmur_Final_308,2024.2.4,60.1372090367801,2025-01-10 12h20.56.364271 +0300,
images/gun.png,25,25,0,death,black,left,-90,-7,left,1,left,1,0.3745139997918159,None,0,1,1,1,0,25,25,53,386.75670380005613,,,,,,,,,386.7439762998838,386.75670380005613,387.92308799992315,387.90685219992884,387.91353540006094,387.92308799992315,387.92308799992315,388.12306410004385,388.12306410004385,388.12306410004385,388.5070080999285,left,1,0.3745139997918159,None,388.5118889999576,388.522833700059,388.522833700059,389.5066790001001,389.5229919999838,389.5229919999838,,,,,,,,678988,,,A,001,2025-01-10_12h20.49.071,Yagmur_Final_308,2024.2.4,60.1372090367801,2025-01-10 12h20.56.364271 +0300,
images/gun.png,26,26,0,gate,red,left,-90,7,right,0,left,0,0.08705980004742742,None,0,1,1,1,0,26,26,114,389.5229919999838,,,,,,,,,389.510744899977,389.5229919999838,390.7062498999294,390.6899782998953,390.6960306998808,390.7062498999294,390.7062498999294,390.90587370004505,390.90587370004505,390.90587370004505,391.0067990999669,left,0,0.08705980004742742,None,391.0135250999592,391.0228301999159,391.0228301999159,392.00621500005946,392.02273129997775,392.02273129997775,,,,,,,,678988,,,A,001,2025-01-10_12h20.49.071,Yagmur_Final_308,2024.2.4,60.1372090367801,2025-01-10 12h20.56.364271 +0300,
images/gun.png,27,27,0,health,red,right,90,7,right,1,right,1,0.015564699890092015,None,0,1,1,1,0,27,27,9,392.02273129997775,,,,,,,,,392.0098790000193,392.02273129997775,393.3223935000133,393.30604050005786,393.31250609993003,393.3223935000133,393.3223935000133,393.52206319989637,393.52206319989637,393.52206319989637,393.53993250010535,right,1,0.015564699890092015,None,393.5462776001077,393.555811899947,393.555811899947,394.5397979998961,394.555598200066,394.555598200066,,,,,,,,678988,,,A,001,2025-01-10_12h20.49.071,Yagmur_Final_308,2024.2.4,60.1372090367801,2025-01-10 12h20.56.364271 +0300,
images/gun.png,28,28,0,hate,black,right,90,7,right,1,left,0,0.2935870001092553,None,0,1,1,1,0,28,28,38,394.555598200066,,,,,,,,,394.544092600001,394.555598200066,395.7552463999018,395.7393545000814,395.7462742999196,395.7552463999018,395.7552463999018,395.95528519991785,395.95528519991785,395.95528519991785,396.2560944999568,left,0,0.2935870001092553,None,396.2621188000776,396.2720530000515,396.2720530000515,397.2555368999019,397.2717577998992,397.2717577998992,,,,,,,,678988,,,A,001,2025-01-10_12h20.49.071,Yagmur_Final_308,2024.2.4,60.1372090367801,2025-01-10 12h20.56.364271 +0300,
images/gun.png,29,29,0,death,blue,left,-90,-7,left,1,right,0,0.3292721000034362,None,0,1,1,1,0,29,29,88,397.2717577998992,,,,,,,,,397.2586419999134,397.2717577998992,398.4550187999848,398.43887860001996,398.4474146999419,398.4550187999848,398.4550187999848,398.65500869997777,398.65500869997777,398.65500869997777,398.9895488000475,right,0,0.3292721000034362,None,398.99419660004787,399.0053808998782,399.0053808998782,399.98864150000736,400.0050270999782,400.0050270999782,,,,,,,,678988,,,A,001,2025-01-10_12h20.49.071,Yagmur_Final_308,2024.2.4,60.1372090367801,2025-01-10 12h20.56.364271 +0300,
images/gun.png,30,30,0,hate,black,left,-90,7,right,0,left,0,0.1806006000842899,None,0,1,1,1,0,30,30,98,400.0050270999782,,,,,,,,,399.99294100003317,400.0050270999782,401.20488029997796,401.18859590007924,401.195193399908,401.20488029997796,401.20488029997796,401.40461599989794,401.40461599989794,401.40461599989794,401.5893168998882,left,0,0.1806006000842899,None,401.59421660006046,401.60456379991956,401.60456379991956,402.5886780000292,402.6047084000893,402.6047084000893,,,,,,,,678988,,,A,001,2025-01-10_12h20.49.071,Yagmur_Final_308,2024.2.4,60.1372090367801,2025-01-10 12h20.56.364271 +0300,
images/gun.png,31,31,0,hate,black,right,90,7,right,1,right,1,0.057135799899697304,None,0,1,1,1,0,31,31,50,402.6047084000893,,,,,,,,,402.5928927999921,402.6047084000893,403.70426720008254,403.6884800000116,403.693138099974,403.70426720008254,403.70426720008254,403.9040554999374,403.9040554999374,403.9040554999374,403.9716872998979,right,1,0.057135799899697304,None,403.9761020001024,403.98752409988083,403.98752409988083,404.97155210003257,404.98779090004973,404.98779090004973,,,,,,,,678988,,,A,001,2025-01-10_12h20.49.071,Yagmur_Final_308,2024.2.4,60.1372090367801,2025-01-10 12h20.56.364271 +0300,
images/gun.png,32,32,0,hate,red,right,90,7,right,1,left,0,0.14786839997395873,None,0,1,1,1,0,32,32,84,404.98779090004973,,,,,,,,,404.9765282999724,404.98779090004973,406.2541336999275,406.2387312001083,406.2446685999166,406.2541336999275,406.2541336999275,406.4538881999906,406.4538881999906,406.4538881999906,406.60510169994086,left,0,0.14786839997395873,None,406.6110356999561,406.6210749000311,406.6210749000311,407.6041991999373,407.6205756999552,407.6205756999552,,,,,,,,678988,,,A,001,2025-01-10_12h20.49.071,Yagmur_Final_308,2024.2.4,60.1372090367801,2025-01-10 12h20.56.364271 +0300,
images/gun.png,33,33,0,health,blue,right,90,7,right,1,right,1,0.2101404001004994,None,0,1,1,1,0,33,33,58,407.6205756999552,,,,,,,,,407.6075136999134,407.6205756999552,408.886876600096,408.87087889993563,408.87758479989134,408.886876600096,408.886876600096,409.0868102000095,409.0868102000095,409.0868102000095,409.3045890000649,right,1,0.2101404001004994,None,409.31030200002715,409.32022179989144,409.32022179989144,410.30392930004746,410.3201957999263,410.3201957999263,,,,,,,,678988,,,A,001,2025-01-10_12h20.49.071,Yagmur_Final_308,2024.2.4,60.1372090367801,2025-01-10 12h20.56.364271 +0300,
images/gun.png,34,34,0,gate,red,left,-90,-7,left,1,left,1,0.09058850002475083,None,0,1,1,1,0,34,34,54,410.3201957999263,,,,,,,,,410.30728160007857,410.3201957999263,411.4867175000254,411.4704758001026,411.47621700004674,411.4867175000254,411.4867175000254,411.6864342999179,411.6864342999179,411.6864342999179,411.7873541000299,left,1,0.09058850002475083,None,411.7909736998845,411.8032750999555,411.8032750999555,412.786992700072,412.80307439994067,412.80307439994067,,,,,,,,678988,,,A,001,2025-01-10_12h20.49.071,Yagmur_Final_308,2024.2.4,60.1372090367801,2025-01-10 12h20.56.364271 +0300,
images/gun.png,35,35,0,hate,red,right,90,7,right,1,left,0,0.15105310012586415,None,0,1,1,1,0,35,35,12,412.80307439994067,,,,,,,,,412.79063019994646,412.80307439994067,413.9699677999597,413.953872699989,413.960752800107,413.9699677999597,413.9699677999597,414.16966690006666,414.16966690006666,414.16966690006666,414.33737819991075,left,0,0.15105310012586415,None,414.34414159995504,414.35320369992405,414.35320369992405,415.33657280006446,415.35275839990936,415.35275839990936,,,,,,,,678988,,,A,001,2025-01-10_12h20.49.071,Yagmur_Final_308,2024.2.4,60.1372090367801,2025-01-10 12h20.56.364271 +0300,
images/gun.png,36,36,0,health,black,right,90,7,right,1,right,1,0.3080128999426961,None,0,1,1,1,0,36,36,47,415.35275839990936,,,,,,,,,415.3395422999747,415.35275839990936,416.6693212999962,416.65318890009075,416.6613404999953,416.6693212999962,416.6693212999962,416.8692733000498,416.8692733000498,416.8692733000498,417.1868892000057,right,1,0.3080128999426961,None,417.19279240001924,417.20251660002396,417.20251660002396,418.18625749996863,418.2027549999766,418.2027549999766,,,,,,,,678988,,,A,001,2025-01-10_12h20.49.071,Yagmur_Final_308,2024.2.4,60.1372090367801,2025-01-10 12h20.56.364271 +0300,
images/gun.png,37,37,0,health,black,right,90,7,right,1,right,1,0.4665972001384944,None,0,1,1,1,0,37,37,11,418.2027549999766,,,,,,,,,418.1892512999475,418.2027549999766,419.3192616000306,419.3030838998966,419.30789859988727,419.3192616000306,419.3192616000306,419.51906160009094,419.51906160009094,419.51906160009094,419.9867434001062,right,1,0.4665972001384944,None,419.99142390000634,420.00235399999656,420.00235399999656,420.98591120005585,421.0021943000611,421.0021943000611,,,,,,,,678988,,,A,001,2025-01-10_12h20.49.071,Yagmur_Final_308,2024.2.4,60.1372090367801,2025-01-10 12h20.56.364271 +0300,
images/gun.png,38,38,0,health,blue,right,90,7,right,1,right,1,0.502785500138998,None,0,1,1,1,0,38,38,82,421.0021943000611,,,,,,,,,420.98939600004815,421.0021943000611,422.2186461999081,422.20285449991934,422.20755739999004,422.2186461999081,422.2186461999081,422.41864420007914,422.41864420007914,422.41864420007914,422.93634600006044,right,1,0.502785500138998,None,422.9409294000361,422.95191189995967,422.95191189995967,423.93562479992397,423.95179289998487,423.95179289998487,,,,,,,,678988,,,A,001,2025-01-10_12h20.49.071,Yagmur_Final_308,2024.2.4,60.1372090367801,2025-01-10 12h20.56.364271 +0300,
images/gun.png,39,39,0,gate,red,left,-90,-7,left,1,right,0,0.07164510013535619,None,0,1,1,1,0,39,39,78,423.95179289998487,,,,,,,,,423.93921760004014,423.95179289998487,425.20166869997047,425.18536820006557,425.19071529991925,425.20166869997047,425.20166869997047,425.401365299942,425.401365299942,425.401365299942,425.48596399999224,right,0,0.07164510013535619,None,425.4938916999381,425.5015207999386,425.5015207999386,426.48539889999665,426.50163449998945,426.50163449998945,,,,,,,,678988,,,A,001,2025-01-10_12h20.49.071,Yagmur_Final_308,2024.2.4,60.1372090367801,2025-01-10 12h20.56.364271 +0300,
images/gun.png,40,40,0,hate,red,left,-90,7,right,0,left,0,0.3320506999734789,None,0,1,1,1,0,40,40,108,426.50163449998945,,,,,,,,,426.4891947999131,426.50163449998945,427.7012038999237,427.68517159996554,427.6946537999902,427.7012038999237,427.7012038999237,427.90113670006394,427.90113670006394,427.90113670006394,428.23564750002697,left,0,0.3320506999734789,None,428.23982909996994,428.25132429995574,428.25132429995574,429.23492949991487,429.2514716000296,429.2514716000296,,,,,,,,678988,,,A,001,2025-01-10_12h20.49.071,Yagmur_Final_308,2024.2.4,60.1372090367801,2025-01-10 12h20.56.364271 +0300,
images/gun.png,41,41,0,hate,black,right,90,7,right,1,right,1,0.2672292999923229,None,0,1,1,1,0,41,41,14,429.2514716000296,,,,,,,,,429.23868030007,429.2514716000296,430.33448620000854,430.3187070998829,430.32434540009126,430.33448620000854,430.33448620000854,430.5342196000274,430.5342196000274,430.5342196000274,430.8032992000226,right,1,0.2672292999923229,None,430.81140029989183,430.8176585000474,430.8176585000474,431.80148310004734,431.81732150004245,431.81732150004245,,,,,,,,678988,,,A,001,2025-01-10_12h20.49.071,Yagmur_Final_308,2024.2.4,60.1372090367801,2025-01-10 12h20.56.364271 +0300,
images/gun.png,42,42,0,death,blue,left,-90,-7,left,1,left,1,0.09339910000562668,None,0,1,1,1,0,42,42,16,431.81732150004245,,,,,,,,,431.8052870000247,431.81732150004245,432.88392359996215,432.8677018000744,432.8748643998988,432.88392359996215,432.88392359996215,433.0836962000467,433.0836962000467,433.0836962000467,433.1848257998936,left,1,0.09339910000562668,None,433.1882831000257,433.20065789995715,433.20065789995715,434.18420109990984,434.20059809996746,434.20059809996746,,,,,,,,678988,,,A,001,2025-01-10_12h20.49.071,Yagmur_Final_308,2024.2.4,60.1372090367801,2025-01-10 12h20.56.364271 +0300,
images/gun.png,43,43,0,gate,black,left,-90,7,right,0,left,0,0.05805830005556345,None,0,1,1,1,0,43,43,116,434.20059809996746,,,,,,,,,434.18767430004664,434.20059809996746,435.36698090005666,435.3507952999789,435.3566658999771,435.36698090005666,435.36698090005666,435.56690159998834,435.56690159998834,435.56690159998834,435.634456000058,left,0,0.05805830005556345,None,435.64095970010385,435.6502000000328,435.6502000000328,436.6338138000574,436.6502086999826,436.6502086999826,,,,,,,,678988,,,A,001,2025-01-10_12h20.49.071,Yagmur_Final_308,2024.2.4,60.1372090367801,2025-01-10 12h20.56.364271 +0300,
