imageFile,corrAns,sameOrDiff,ori,thisN,thisTrialN,thisRepN,key_resp_2.keys,key_resp_2.rt,key_resp_2.duration,trials_faceRecognition.thisRepN,trials_faceRecognition.thisTrialN,trials_faceRecognition.thisN,trials_faceRecognition.thisIndex,thisRow.t,notes,instructions.started,text.started,key_resp.started,instructions.stopped,key_resp.keys,key_resp.rt,key_resp.duration,trial.started,same_text.started,different_text.started,image.started,key_resp_2.started,arrow_left.started,arrow_right.started,trial.stopped,trials_faceRecognition.key_resp_2.keys,trials_faceRecognition.key_resp_2.rt,trials_faceRecognition.key_resp_2.duration,feedback.started,feedback.stopped,thanks_message.started,thank_you_message.started,thank_you_message.stopped,thanks_message.stopped,Participant ID,Age,Gender,session,date,expName,psychopyVersion,frameRate,expStart,
,,,,,,,,,,,,,,,,0.0017751000000316708,0.004250899999988178,0.004250899999988178,2.5944756999999754,space,2.58204899999987,None,,,,,,,,,,,,,,,,,,252857,,,001,2024-12-26_23h14.25.848,glasgowFaceRecognition-Yagmur,2024.2.4,59.98166960173961,2024-12-26 23h14.31.501471 +0300,
same/020_C2_DV.jpg,left,same,0,0,0,0,left,1.8828154000000268,None,0,0,0,0,2.6717157000000498,,,,,,,,,2.637578699999949,2.6717157000000498,2.6717157000000498,2.6717157000000498,2.6717157000000498,2.6717157000000498,2.6717157000000498,4.558342099999891,left,1.8828154000000268,None,4.558408299999883,4.558744400000023,,,,,252857,,,001,2024-12-26_23h14.25.848,glasgowFaceRecognition-Yagmur,2024.2.4,59.98166960173961,2024-12-26 23h14.31.501471 +0300,
same/025_C2_DV.jpg,left,same,0,1,1,0,right,8.321620800000119,None,0,1,1,1,4.576805500000091,,,,,,,,,4.569415899999967,4.576805500000091,4.576805500000091,4.576805500000091,4.576805500000091,4.576805500000091,4.576805500000091,12.907457399999885,right,8.321620800000119,None,12.907535499999994,12.907906400000002,,,,,252857,,,001,2024-12-26_23h14.25.848,glasgowFaceRecognition-Yagmur,2024.2.4,59.98166960173961,2024-12-26 23h14.31.501471 +0300,
same/068_C2_DV.jpg,left,same,0,2,2,0,left,0.6044561000001067,None,0,2,2,2,12.925589799999898,,,,,,,,,12.918760399999883,12.925589799999898,12.925589799999898,12.925589799999898,12.925589799999898,12.925589799999898,12.925589799999898,13.54089040000008,left,0.6044561000001067,None,13.54096780000009,13.54134339999996,,,,,252857,,,001,2024-12-26_23h14.25.848,glasgowFaceRecognition-Yagmur,2024.2.4,59.98166960173961,2024-12-26 23h14.31.501471 +0300,
same/069_C2_DV.jpg,left,same,0,3,3,0,right,0.17865219999998772,None,0,3,3,3,13.560626499999898,,,,,,,,,13.553721400000086,13.560626499999898,13.560626499999898,13.560626499999898,13.560626499999898,13.560626499999898,13.560626499999898,13.740875199999891,right,0.17865219999998772,None,13.740930200000093,13.741193000000067,,,,,252857,,,001,2024-12-26_23h14.25.848,glasgowFaceRecognition-Yagmur,2024.2.4,59.98166960173961,2024-12-26 23h14.31.501471 +0300,
same/074_C2_DV.jpg,left,same,0,4,4,0,left,0.06766789999983303,None,0,4,4,4,13.758546000000024,,,,,,,,,13.749988099999882,13.758546000000024,13.758546000000024,13.758546000000024,13.758546000000024,13.758546000000024,13.758546000000024,13.840638800000079,left,0.06766789999983303,None,13.84070500000007,13.841004200000043,,,,,252857,,,001,2024-12-26_23h14.25.848,glasgowFaceRecognition-Yagmur,2024.2.4,59.98166960173961,2024-12-26 23h14.31.501471 +0300,
same/075_DV_C2.jpg,left,same,0,5,5,0,right,0.14435309999998935,None,0,5,5,5,13.858229599999959,,,,,,,,,13.850570699999935,13.858229599999959,13.858229599999959,13.858229599999959,13.858229599999959,13.858229599999959,13.858229599999959,14.00752650000004,right,0.14435309999998935,None,14.007611199999928,14.008036599999969,,,,,252857,,,001,2024-12-26_23h14.25.848,glasgowFaceRecognition-Yagmur,2024.2.4,59.98166960173961,2024-12-26 23h14.31.501471 +0300,
same/081_C2_DV.jpg,left,same,0,6,6,0,left,0.06955879999986792,None,0,6,6,6,14.029246199999989,,,,,,,,,14.022008599999936,14.029246199999989,14.029246199999989,14.029246199999989,14.029246199999989,14.029246199999989,14.029246199999989,14.10717139999997,left,0.06955879999986792,None,14.107246099999884,14.107620100000076,,,,,252857,,,001,2024-12-26_23h14.25.848,glasgowFaceRecognition-Yagmur,2024.2.4,59.98166960173961,2024-12-26 23h14.31.501471 +0300,
same/085_C2_DV.jpg,left,same,0,7,7,0,right,0.10775100000000748,None,0,7,7,7,14.126553300000069,,,,,,,,,14.119722700000011,14.126553300000069,14.126553300000069,14.126553300000069,14.126553300000069,14.126553300000069,14.126553300000069,14.240252499999997,right,0.10775100000000748,None,14.240311399999882,14.240608500000008,,,,,252857,,,001,2024-12-26_23h14.25.848,glasgowFaceRecognition-Yagmur,2024.2.4,59.98166960173961,2024-12-26 23h14.31.501471 +0300,
same/092_C2_DV.jpg,left,same,0,8,8,0,left,0.07985689999986789,None,0,8,8,8,14.25843359999999,,,,,,,,,14.250266600000032,14.25843359999999,14.25843359999999,14.25843359999999,14.25843359999999,14.25843359999999,14.25843359999999,14.340495799999871,left,0.07985689999986789,None,14.340550800000074,14.340832699999964,,,,,252857,,,001,2024-12-26_23h14.25.848,glasgowFaceRecognition-Yagmur,2024.2.4,59.98166960173961,2024-12-26 23h14.31.501471 +0300,
same/102_C2_DV.jpg,left,same,0,9,9,0,right,0.1563734999999724,None,0,9,9,9,14.35818909999989,,,,,,,,,14.349618299999975,14.35818909999989,14.35818909999989,14.35818909999989,14.35818909999989,14.35818909999989,14.35818909999989,14.523863099999971,right,0.1563734999999724,None,14.523949700000003,14.524396399999887,,,,,252857,,,001,2024-12-26_23h14.25.848,glasgowFaceRecognition-Yagmur,2024.2.4,59.98166960173961,2024-12-26 23h14.31.501471 +0300,
same/108_DV_C2.jpg,left,same,0,10,10,0,left,0.05557120000003124,None,0,10,10,10,14.54578689999994,,,,,,,,,14.538191999999981,14.54578689999994,14.54578689999994,14.54578689999994,14.54578689999994,14.54578689999994,14.54578689999994,14.607231100000035,left,0.05557120000003124,None,14.607296500000075,14.607618600000023,,,,,252857,,,001,2024-12-26_23h14.25.848,glasgowFaceRecognition-Yagmur,2024.2.4,59.98166960173961,2024-12-26 23h14.31.501471 +0300,
same/115_C2_DV.jpg,left,same,0,11,11,0,right,0.12857129999997596,None,0,11,11,11,14.625373200000013,,,,,,,,,14.61806290000004,14.625373200000013,14.625373200000013,14.625373200000013,14.625373200000013,14.625373200000013,14.625373200000013,14.757095599999957,right,0.12857129999997596,None,14.757163799999944,14.757520699999986,,,,,252857,,,001,2024-12-26_23h14.25.848,glasgowFaceRecognition-Yagmur,2024.2.4,59.98166960173961,2024-12-26 23h14.31.501471 +0300,
same/120_DV_C2.jpg,left,same,0,12,12,0,left,0.09031000000004497,None,0,12,12,12,14.775867000000062,,,,,,,,,14.768783400000075,14.775867000000062,14.775867000000062,14.775867000000062,14.775867000000062,14.775867000000062,14.775867000000062,14.873966800000062,left,0.09031000000004497,None,14.874037499999986,14.874381300000096,,,,,252857,,,001,2024-12-26_23h14.25.848,glasgowFaceRecognition-Yagmur,2024.2.4,59.98166960173961,2024-12-26 23h14.31.501471 +0300,
same/129_C2_DV.jpg,left,same,0,13,13,0,right,0.1582056999998258,None,0,13,13,13,14.892501000000038,,,,,,,,,14.885517200000095,14.892501000000038,14.892501000000038,14.892501000000038,14.892501000000038,14.892501000000038,14.892501000000038,15.057206599999972,right,0.1582056999998258,None,15.057284700000082,15.057703100000026,,,,,252857,,,001,2024-12-26_23h14.25.848,glasgowFaceRecognition-Yagmur,2024.2.4,59.98166960173961,2024-12-26 23h14.31.501471 +0300,
same/136_C2_DV.jpg,left,same,0,14,14,0,left,0.03746280000018487,None,0,14,14,14,15.077081099999987,,,,,,,,,15.070020999999997,15.077081099999987,15.077081099999987,15.077081099999987,15.077081099999987,15.077081099999987,15.077081099999987,15.123443799999905,left,0.03746280000018487,None,15.123502899999949,15.12376909999989,,,,,252857,,,001,2024-12-26_23h14.25.848,glasgowFaceRecognition-Yagmur,2024.2.4,59.98166960173961,2024-12-26 23h14.31.501471 +0300,
same/139_DV_C2.jpg,left,same,0,15,15,0,right,0.1234633000001395,None,0,15,15,15,15.141718000000083,,,,,,,,,15.132589099999905,15.141718000000083,15.141718000000083,15.141718000000083,15.141718000000083,15.141718000000083,15.141718000000083,15.273715300000049,right,0.1234633000001395,None,15.273778999999877,15.274065800000017,,,,,252857,,,001,2024-12-26_23h14.25.848,glasgowFaceRecognition-Yagmur,2024.2.4,59.98166960173961,2024-12-26 23h14.31.501471 +0300,
same/168_C2_DV.jpg,left,same,0,16,16,0,left,0.09529859999997825,None,0,16,16,16,15.291477400000076,,,,,,,,,15.283376899999894,15.291477400000076,15.291477400000076,15.291477400000076,15.291477400000076,15.291477400000076,15.291477400000076,15.390224999999873,left,0.09529859999997825,None,15.39028089999988,15.390571399999999,,,,,252857,,,001,2024-12-26_23h14.25.848,glasgowFaceRecognition-Yagmur,2024.2.4,59.98166960173961,2024-12-26 23h14.31.501471 +0300,
same/170_DV_C2.jpg,left,same,0,17,17,0,right,0.13866299999995135,None,0,17,17,17,15.408204899999873,,,,,,,,,15.399519900000087,15.408204899999873,15.408204899999873,15.408204899999873,15.408204899999873,15.408204899999873,15.408204899999873,15.557155100000045,right,0.13866299999995135,None,15.557253700000047,15.557689299999993,,,,,252857,,,001,2024-12-26_23h14.25.848,glasgowFaceRecognition-Yagmur,2024.2.4,59.98166960173961,2024-12-26 23h14.31.501471 +0300,
same/235_C2_DV.jpg,left,same,0,18,18,0,left,0.05517399999985173,None,0,18,18,18,15.578228300000092,,,,,,,,,15.571196699999973,15.578228300000092,15.578228300000092,15.578228300000092,15.578228300000092,15.578228300000092,15.578228300000092,15.641278099999909,left,0.05517399999985173,None,15.641337799999974,15.641605600000048,,,,,252857,,,001,2024-12-26_23h14.25.848,glasgowFaceRecognition-Yagmur,2024.2.4,59.98166960173961,2024-12-26 23h14.31.501471 +0300,
same/303_DV_C2.jpg,left,same,0,19,19,0,right,0.13643069999989166,None,0,19,19,19,15.65817109999989,,,,,,,,,15.650277899999992,15.65817109999989,15.65817109999989,15.65817109999989,15.65817109999989,15.65817109999989,15.65817109999989,15.806718600000067,right,0.13643069999989166,None,15.806773799999974,15.80704639999999,,,,,252857,,,001,2024-12-26_23h14.25.848,glasgowFaceRecognition-Yagmur,2024.2.4,59.98166960173961,2024-12-26 23h14.31.501471 +0300,
different/013_235_R.jpg,right,different,0,20,20,0,left,0.08524780000016108,None,0,20,20,20,15.829023900000038,,,,,,,,,15.822788700000046,15.829023900000038,15.829023900000038,15.829023900000038,15.829023900000038,15.829023900000038,15.829023900000038,15.923343599999953,left,0.08524780000016108,None,15.923396700000012,15.923674699999992,,,,,252857,,,001,2024-12-26_23h14.25.848,glasgowFaceRecognition-Yagmur,2024.2.4,59.98166960173961,2024-12-26 23h14.31.501471 +0300,
different/019_074_L.jpg,right,different,0,21,21,0,right,0.07009450000009565,None,0,21,21,21,15.939083299999993,,,,,,,,,15.931998099999873,15.939083299999993,15.939083299999993,15.939083299999993,15.939083299999993,15.939083299999993,15.939083299999993,16.02322409999988,right,0.07009450000009565,None,16.02327799999989,16.02357189999998,,,,,252857,,,001,2024-12-26_23h14.25.848,glasgowFaceRecognition-Yagmur,2024.2.4,59.98166960173961,2024-12-26 23h14.31.501471 +0300,
different/025_235_L.jpg,right,different,0,22,22,0,left,0.06675350000000435,None,0,22,22,22,16.038929300000063,,,,,,,,,16.031974900000023,16.038929300000063,16.038929300000063,16.038929300000063,16.038929300000063,16.038929300000063,16.038929300000063,16.10664819999988,left,0.06675350000000435,None,16.106710499999963,16.10701139999992,,,,,252857,,,001,2024-12-26_23h14.25.848,glasgowFaceRecognition-Yagmur,2024.2.4,59.98166960173961,2024-12-26 23h14.31.501471 +0300,
different/049_218_L.jpg,right,different,0,23,23,0,right,0.17605750000006992,None,0,23,23,23,16.122529400000076,,,,,,,,,16.116007399999944,16.122529400000076,16.122529400000076,16.122529400000076,16.122529400000076,16.122529400000076,16.122529400000076,16.306211000000076,right,0.17605750000006992,None,16.306283800000074,16.306578799999897,,,,,252857,,,001,2024-12-26_23h14.25.848,glasgowFaceRecognition-Yagmur,2024.2.4,59.98166960173961,2024-12-26 23h14.31.501471 +0300,
different/076_109_R.jpg,right,different,0,24,24,0,left,0.17535029999999097,None,0,24,24,24,16.32237740000005,,,,,,,,,16.316391600000088,16.32237740000005,16.32237740000005,16.32237740000005,16.32237740000005,16.32237740000005,16.32237740000005,16.50657669999987,left,0.17535029999999097,None,16.506640999999945,16.50695840000003,,,,,252857,,,001,2024-12-26_23h14.25.848,glasgowFaceRecognition-Yagmur,2024.2.4,59.98166960173961,2024-12-26 23h14.31.501471 +0300,
different/077_133_R.jpg,right,different,0,25,25,0,right,0.1845823000001019,None,0,25,25,25,16.52228029999992,,,,,,,,,16.517147499999965,16.52228029999992,16.52228029999992,16.52228029999992,16.52228029999992,16.52228029999992,16.52228029999992,16.722795700000006,right,0.1845823000001019,None,16.722849199999928,16.723114200000055,,,,,252857,,,001,2024-12-26_23h14.25.848,glasgowFaceRecognition-Yagmur,2024.2.4,59.98166960173961,2024-12-26 23h14.31.501471 +0300,
different/091_283_R.jpg,right,different,0,26,26,0,left,0.11181979999992109,None,0,26,26,26,16.738889900000004,,,,,,,,,16.73137419999989,16.738889900000004,16.738889900000004,16.738889900000004,16.738889900000004,16.738889900000004,16.738889900000004,16.856249700000035,left,0.11181979999992109,None,16.85630459999993,16.856621700000005,,,,,252857,,,001,2024-12-26_23h14.25.848,glasgowFaceRecognition-Yagmur,2024.2.4,59.98166960173961,2024-12-26 23h14.31.501471 +0300,
different/092_283_L.jpg,right,different,0,27,27,0,right,0.28977209999993647,None,0,27,27,27,16.872368600000073,,,,,,,,,16.86506579999991,16.872368600000073,16.872368600000073,16.872368600000073,16.872368600000073,16.872368600000073,16.872368600000073,17.172780899999907,right,0.28977209999993647,None,17.17285250000009,17.17319169999996,,,,,252857,,,001,2024-12-26_23h14.25.848,glasgowFaceRecognition-Yagmur,2024.2.4,59.98166960173961,2024-12-26 23h14.31.501471 +0300,
different/102_224_R.jpg,right,different,0,28,28,0,right,3.3325786999998854,None,0,28,28,28,17.188811299999998,,,,,,,,,17.184453099999928,17.188811299999998,17.188811299999998,17.188811299999998,17.188811299999998,17.188811299999998,17.188811299999998,20.5228204,right,3.3325786999998854,None,20.52288920000001,20.52322920000006,,,,,252857,,,001,2024-12-26_23h14.25.848,glasgowFaceRecognition-Yagmur,2024.2.4,59.98166960173961,2024-12-26 23h14.31.501471 +0300,
different/106_224_L.jpg,right,different,0,29,29,0,left,6.119779999999992,None,0,29,29,29,20.53838470000005,,,,,,,,,20.532430299999987,20.53838470000005,20.53838470000005,20.53838470000005,20.53838470000005,20.53838470000005,20.53838470000005,26.67160089999993,left,6.119779999999992,None,26.671655099999953,26.671921999999995,,,,,252857,,,001,2024-12-26_23h14.25.848,glasgowFaceRecognition-Yagmur,2024.2.4,59.98166960173961,2024-12-26 23h14.31.501471 +0300,
different/116_067_R.jpg,right,different,0,30,30,0,right,2.794737300000179,None,0,30,30,30,26.687873599999875,,,,,,,,,26.68026830000008,26.687873599999875,26.687873599999875,26.687873599999875,26.687873599999875,26.687873599999875,26.687873599999875,29.488468600000033,right,2.794737300000179,None,29.488555299999916,29.488976599999887,,,,,252857,,,001,2024-12-26_23h14.25.848,glasgowFaceRecognition-Yagmur,2024.2.4,59.98166960173961,2024-12-26 23h14.31.501471 +0300,
different/120_133_R.jpg,right,different,0,31,31,0,right,8.906084000000192,None,0,31,31,31,29.503999799999974,,,,,,,,,29.499036100000012,29.503999799999974,29.503999799999974,29.503999799999974,29.503999799999974,29.503999799999974,29.503999799999974,38.42054250000001,right,8.906084000000192,None,38.42062349999992,38.421070899999904,,,,,252857,,,001,2024-12-26_23h14.25.848,glasgowFaceRecognition-Yagmur,2024.2.4,59.98166960173961,2024-12-26 23h14.31.501471 +0300,
different/132_210_R.jpg,right,different,0,32,32,0,left,0.03039960000000974,None,0,32,32,32,38.43623189999994,,,,,,,,,38.43137569999999,38.43623189999994,38.43623189999994,38.43623189999994,38.43623189999994,38.43623189999994,38.43623189999994,38.4702812999999,left,0.03039960000000974,None,38.47034159999998,38.47062510000001,,,,,252857,,,001,2024-12-26_23h14.25.848,glasgowFaceRecognition-Yagmur,2024.2.4,59.98166960173961,2024-12-26 23h14.31.501471 +0300,
different/143_254_R.jpg,right,different,0,33,33,0,right,0.33963949999997567,None,0,33,33,33,38.48590310000009,,,,,,,,,38.47878109999988,38.48590310000009,38.48590310000009,38.48590310000009,38.48590310000009,38.48590310000009,38.48590310000009,38.83691900000008,right,0.33963949999997567,None,38.836989599999924,38.83732239999995,,,,,252857,,,001,2024-12-26_23h14.25.848,glasgowFaceRecognition-Yagmur,2024.2.4,59.98166960173961,2024-12-26 23h14.31.501471 +0300,
different/209_224_R.jpg,right,different,0,34,34,0,left,0.06861960000014733,None,0,34,34,34,38.85264559999996,,,,,,,,,38.8480098,38.85264559999996,38.85264559999996,38.85264559999996,38.85264559999996,38.85264559999996,38.85264559999996,38.93666919999987,left,0.06861960000014733,None,38.93672250000009,38.93699609999999,,,,,252857,,,001,2024-12-26_23h14.25.848,glasgowFaceRecognition-Yagmur,2024.2.4,59.98166960173961,2024-12-26 23h14.31.501471 +0300,
different/254_287_L.jpg,right,different,0,35,35,0,left,0.20901600000001963,None,0,35,35,35,38.9528628999999,,,,,,,,,38.945044099999905,38.9528628999999,38.9528628999999,38.9528628999999,38.9528628999999,38.9528628999999,38.9528628999999,39.170229099999915,left,0.20901600000001963,None,39.17029589999993,39.170589900000095,,,,,252857,,,001,2024-12-26_23h14.25.848,glasgowFaceRecognition-Yagmur,2024.2.4,59.98166960173961,2024-12-26 23h14.31.501471 +0300,
different/261_254_L.jpg,right,different,0,36,36,0,right,0.08055130000002464,None,0,36,36,36,39.18603540000004,,,,,,,,,39.1808274,39.18603540000004,39.18603540000004,39.18603540000004,39.18603540000004,39.18603540000004,39.18603540000004,39.270071200000075,right,0.08055130000002464,None,39.27012530000002,39.27040480000005,,,,,252857,,,001,2024-12-26_23h14.25.848,glasgowFaceRecognition-Yagmur,2024.2.4,59.98166960173961,2024-12-26 23h14.31.501471 +0300,
different/282_108_R.jpg,right,different,0,37,37,0,left,0.12387440000020433,None,0,37,37,37,39.28602069999988,,,,,,,,,39.27891520000003,39.28602069999988,39.28602069999988,39.28602069999988,39.28602069999988,39.28602069999988,39.28602069999988,39.42000089999988,left,0.12387440000020433,None,39.42005549999999,39.420331600000054,,,,,252857,,,001,2024-12-26_23h14.25.848,glasgowFaceRecognition-Yagmur,2024.2.4,59.98166960173961,2024-12-26 23h14.31.501471 +0300,
different/296_235_L.jpg,right,different,0,38,38,0,right,0.10150459999999839,None,0,38,38,38,39.43582739999988,,,,,,,,,39.42879549999998,39.43582739999988,39.43582739999988,39.43582739999988,39.43582739999988,39.43582739999988,39.43582739999988,39.55309349999993,right,0.10150459999999839,None,39.5531469,39.55342330000008,,,,,252857,,,001,2024-12-26_23h14.25.848,glasgowFaceRecognition-Yagmur,2024.2.4,59.98166960173961,2024-12-26 23h14.31.501471 +0300,
different/303_037_R.jpg,right,different,0,39,39,0,left,0.04988979999984622,None,0,39,39,39,39.56916350000006,,,,,,,,,39.56177509999998,39.56916350000006,39.56916350000006,39.56916350000006,39.56916350000006,39.56916350000006,39.56916350000006,39.620026099999905,left,0.04988979999984622,None,39.62008079999987,39.620357499999955,,,,,252857,,,001,2024-12-26_23h14.25.848,glasgowFaceRecognition-Yagmur,2024.2.4,59.98166960173961,2024-12-26 23h14.31.501471 +0300,
same/020_C2_DV.jpg,left,same,180,40,40,0,right,0.1288417999999183,None,0,40,40,40,39.65685460000009,,,,,,,,,39.64891340000008,39.65685460000009,39.65685460000009,39.65685460000009,39.65685460000009,39.65685460000009,39.65685460000009,39.78698710000003,right,0.1288417999999183,None,39.787040799999886,39.787310299999945,,,,,252857,,,001,2024-12-26_23h14.25.848,glasgowFaceRecognition-Yagmur,2024.2.4,59.98166960173961,2024-12-26 23h14.31.501471 +0300,
same/025_C2_DV.jpg,left,same,180,41,41,0,left,0.09339559999989433,None,0,41,41,41,39.80510750000008,,,,,,,,,39.7961949999999,39.80510750000008,39.80510750000008,39.80510750000008,39.80510750000008,39.80510750000008,39.80510750000008,39.903647299999875,left,0.09339559999989433,None,39.90370690000009,39.90397559999997,,,,,252857,,,001,2024-12-26_23h14.25.848,glasgowFaceRecognition-Yagmur,2024.2.4,59.98166960173961,2024-12-26 23h14.31.501471 +0300,
same/068_C2_DV.jpg,left,same,180,42,42,0,right,0.0802526999998463,None,0,42,42,42,39.92214530000001,,,,,,,,,39.912968299999875,39.92214530000001,39.92214530000001,39.92214530000001,39.92214530000001,39.92214530000001,39.92214530000001,40.003685500000074,right,0.0802526999998463,None,40.003738699999985,40.004016800000045,,,,,252857,,,001,2024-12-26_23h14.25.848,glasgowFaceRecognition-Yagmur,2024.2.4,59.98166960173961,2024-12-26 23h14.31.501471 +0300,
same/069_C2_DV.jpg,left,same,180,43,43,0,left,0.09128259999988586,None,0,43,43,43,40.02189780000003,,,,,,,,,40.01286200000004,40.02189780000003,40.02189780000003,40.02189780000003,40.02189780000003,40.02189780000003,40.02189780000003,40.12030639999989,left,0.09128259999988586,None,40.12036390000003,40.12065080000002,,,,,252857,,,001,2024-12-26_23h14.25.848,glasgowFaceRecognition-Yagmur,2024.2.4,59.98166960173961,2024-12-26 23h14.31.501471 +0300,
same/074_C2_DV.jpg,left,same,180,44,44,0,right,0.10335390000000189,None,0,44,44,44,40.13863560000004,,,,,,,,,40.130096099999946,40.13863560000004,40.13863560000004,40.13863560000004,40.13863560000004,40.13863560000004,40.13863560000004,40.253771400000005,right,0.10335390000000189,None,40.25382579999996,40.254101999999875,,,,,252857,,,001,2024-12-26_23h14.25.848,glasgowFaceRecognition-Yagmur,2024.2.4,59.98166960173961,2024-12-26 23h14.31.501471 +0300,
same/075_DV_C2.jpg,left,same,180,45,45,0,left,0.13010149999990972,None,0,45,45,45,40.27191909999988,,,,,,,,,40.2629958,40.27191909999988,40.27191909999988,40.27191909999988,40.27191909999988,40.27191909999988,40.27191909999988,40.40387979999991,left,0.13010149999990972,None,40.403938700000026,40.40422650000005,,,,,252857,,,001,2024-12-26_23h14.25.848,glasgowFaceRecognition-Yagmur,2024.2.4,59.98166960173961,2024-12-26 23h14.31.501471 +0300,
same/081_C2_DV.jpg,left,same,180,46,46,0,right,0.08415370000011535,None,0,46,46,46,40.42173449999996,,,,,,,,,40.41383780000001,40.42173449999996,40.42173449999996,40.42173449999996,40.42173449999996,40.42173449999996,40.42173449999996,40.52024540000002,right,0.08415370000011535,None,40.52030160000004,40.52057310000009,,,,,252857,,,001,2024-12-26_23h14.25.848,glasgowFaceRecognition-Yagmur,2024.2.4,59.98166960173961,2024-12-26 23h14.31.501471 +0300,
same/085_C2_DV.jpg,left,same,180,47,47,0,left,0.06342349999999897,None,0,47,47,47,40.538516500000014,,,,,,,,,40.529677999999876,40.538516500000014,40.538516500000014,40.538516500000014,40.538516500000014,40.538516500000014,40.538516500000014,40.603837800000065,left,0.06342349999999897,None,40.60389229999987,40.60415919999991,,,,,252857,,,001,2024-12-26_23h14.25.848,glasgowFaceRecognition-Yagmur,2024.2.4,59.98166960173961,2024-12-26 23h14.31.501471 +0300,
same/092_C2_DV.jpg,left,same,180,48,48,0,right,0.07662970000001224,None,0,48,48,48,40.62198599999988,,,,,,,,,40.61314450000009,40.62198599999988,40.62198599999988,40.62198599999988,40.62198599999988,40.62198599999988,40.62198599999988,40.70365360000005,right,0.07662970000001224,None,40.70370879999996,40.70398320000004,,,,,252857,,,001,2024-12-26_23h14.25.848,glasgowFaceRecognition-Yagmur,2024.2.4,59.98166960173961,2024-12-26 23h14.31.501471 +0300,
same/102_C2_DV.jpg,left,same,180,49,49,0,left,0.08036870000000818,None,0,49,49,49,40.72186529999999,,,,,,,,,40.71293489999994,40.72186529999999,40.72186529999999,40.72186529999999,40.72186529999999,40.72186529999999,40.72186529999999,40.80378990000008,left,0.08036870000000818,None,40.80384509999999,40.8041346,,,,,252857,,,001,2024-12-26_23h14.25.848,glasgowFaceRecognition-Yagmur,2024.2.4,59.98166960173961,2024-12-26 23h14.31.501471 +0300,
same/108_DV_C2.jpg,left,same,180,50,50,0,right,0.1160907999999381,None,0,50,50,50,40.82150159999992,,,,,,,,,40.81299050000007,40.82150159999992,40.82150159999992,40.82150159999992,40.82150159999992,40.82150159999992,40.82150159999992,40.95341979999989,right,0.1160907999999381,None,40.953486899999916,40.95374969999989,,,,,252857,,,001,2024-12-26_23h14.25.848,glasgowFaceRecognition-Yagmur,2024.2.4,59.98166960173961,2024-12-26 23h14.31.501471 +0300,
same/115_C2_DV.jpg,left,same,180,51,51,0,left,0.09444089999988137,None,0,51,51,51,40.9716848999999,,,,,,,,,40.96289879999995,40.9716848999999,40.9716848999999,40.9716848999999,40.9716848999999,40.9716848999999,40.9716848999999,41.070163800000046,left,0.09444089999988137,None,41.07022430000006,41.07051189999993,,,,,252857,,,001,2024-12-26_23h14.25.848,glasgowFaceRecognition-Yagmur,2024.2.4,59.98166960173961,2024-12-26 23h14.31.501471 +0300,
same/120_DV_C2.jpg,left,same,180,52,52,0,right,0.09011290000012195,None,0,52,52,52,41.08869290000007,,,,,,,,,41.080105600000024,41.08869290000007,41.08869290000007,41.08869290000007,41.08869290000007,41.08869290000007,41.08869290000007,41.18701729999998,right,0.09011290000012195,None,41.18708450000008,41.187415299999884,,,,,252857,,,001,2024-12-26_23h14.25.848,glasgowFaceRecognition-Yagmur,2024.2.4,59.98166960173961,2024-12-26 23h14.31.501471 +0300,
same/129_C2_DV.jpg,left,same,180,53,53,0,left,0.08531650000008995,None,0,53,53,53,41.20524939999996,,,,,,,,,41.19706689999998,41.20524939999996,41.20524939999996,41.20524939999996,41.20524939999996,41.20524939999996,41.20524939999996,41.304232100000036,left,0.08531650000008995,None,41.30434739999987,41.304922399999896,,,,,252857,,,001,2024-12-26_23h14.25.848,glasgowFaceRecognition-Yagmur,2024.2.4,59.98166960173961,2024-12-26 23h14.31.501471 +0300,
same/136_C2_DV.jpg,left,same,180,54,54,0,right,0.054646400000137874,None,0,54,54,54,41.33073259999992,,,,,,,,,41.322902299999896,41.33073259999992,41.33073259999992,41.33073259999992,41.33073259999992,41.33073259999992,41.33073259999992,41.38723170000003,right,0.054646400000137874,None,41.387299199999916,41.38765699999999,,,,,252857,,,001,2024-12-26_23h14.25.848,glasgowFaceRecognition-Yagmur,2024.2.4,59.98166960173961,2024-12-26 23h14.31.501471 +0300,
same/139_DV_C2.jpg,left,same,180,55,55,0,left,0.0930706999999984,None,0,55,55,55,41.405719599999884,,,,,,,,,41.39839149999989,41.405719599999884,41.405719599999884,41.405719599999884,41.405719599999884,41.405719599999884,41.405719599999884,41.5037476,left,0.0930706999999984,None,41.503815799999984,41.50415589999989,,,,,252857,,,001,2024-12-26_23h14.25.848,glasgowFaceRecognition-Yagmur,2024.2.4,59.98166960173961,2024-12-26 23h14.31.501471 +0300,
same/168_C2_DV.jpg,left,same,180,56,56,0,right,0.11248460000001614,None,0,56,56,56,41.522107100000085,,,,,,,,,41.51500469999996,41.522107100000085,41.522107100000085,41.522107100000085,41.522107100000085,41.522107100000085,41.522107100000085,41.636995899999874,right,0.11248460000001614,None,41.637049799999886,41.637336000000005,,,,,252857,,,001,2024-12-26_23h14.25.848,glasgowFaceRecognition-Yagmur,2024.2.4,59.98166960173961,2024-12-26 23h14.31.501471 +0300,
same/170_DV_C2.jpg,left,same,180,57,57,0,left,0.1261306000001241,None,0,57,57,57,41.659138900000016,,,,,,,,,41.64673479999988,41.659138900000016,41.659138900000016,41.659138900000016,41.659138900000016,41.659138900000016,41.659138900000016,41.7874319,left,0.1261306000001241,None,41.78750910000008,41.787878399999954,,,,,252857,,,001,2024-12-26_23h14.25.848,glasgowFaceRecognition-Yagmur,2024.2.4,59.98166960173961,2024-12-26 23h14.31.501471 +0300,
same/235_C2_DV.jpg,left,same,180,58,58,0,right,0.06591729999991003,None,0,58,58,58,41.80747670000005,,,,,,,,,41.80036670000004,41.80747670000005,41.80747670000005,41.80747670000005,41.80747670000005,41.80747670000005,41.80747670000005,41.88670079999997,right,0.06591729999991003,None,41.88676190000001,41.88703899999996,,,,,252857,,,001,2024-12-26_23h14.25.848,glasgowFaceRecognition-Yagmur,2024.2.4,59.98166960173961,2024-12-26 23h14.31.501471 +0300,
same/303_DV_C2.jpg,left,same,180,59,59,0,left,0.12196449999987635,None,0,59,59,59,41.904902499999935,,,,,,,,,41.8959832999999,41.904902499999935,41.904902499999935,41.904902499999935,41.904902499999935,41.904902499999935,41.904902499999935,42.03674529999989,left,0.12196449999987635,None,42.03680009999994,42.03707140000006,,,,,252857,,,001,2024-12-26_23h14.25.848,glasgowFaceRecognition-Yagmur,2024.2.4,59.98166960173961,2024-12-26 23h14.31.501471 +0300,
different/013_235_R.jpg,right,different,180,60,60,0,right,0.05987430000004679,None,0,60,60,60,42.05474929999991,,,,,,,,,42.04550100000006,42.05474929999991,42.05474929999991,42.05474929999991,42.05474929999991,42.05474929999991,42.05474929999991,42.11973080000007,right,0.05987430000004679,None,42.119789999999966,42.12009110000008,,,,,252857,,,001,2024-12-26_23h14.25.848,glasgowFaceRecognition-Yagmur,2024.2.4,59.98166960173961,2024-12-26 23h14.31.501471 +0300,
different/019_074_L.jpg,right,different,180,61,61,0,left,0.1298900000001595,None,0,61,61,61,42.1354073,,,,,,,,,42.12958219999996,42.1354073,42.1354073,42.1354073,42.1354073,42.1354073,42.1354073,42.26966889999994,left,0.1298900000001595,None,42.269728400000076,42.270029199999954,,,,,252857,,,001,2024-12-26_23h14.25.848,glasgowFaceRecognition-Yagmur,2024.2.4,59.98166960173961,2024-12-26 23h14.31.501471 +0300,
different/025_235_L.jpg,right,different,180,62,62,0,right,0.0852474999999231,None,0,62,62,62,42.28540399999997,,,,,,,,,42.27946709999992,42.28540399999997,42.28540399999997,42.28540399999997,42.28540399999997,42.28540399999997,42.28540399999997,42.38618229999997,right,0.0852474999999231,None,42.3862431,42.38657779999994,,,,,252857,,,001,2024-12-26_23h14.25.848,glasgowFaceRecognition-Yagmur,2024.2.4,59.98166960173961,2024-12-26 23h14.31.501471 +0300,
different/049_218_L.jpg,right,different,180,63,63,0,left,0.07214279999993778,None,0,63,63,63,42.40222349999999,,,,,,,,,42.3960818999999,42.40222349999999,42.40222349999999,42.40222349999999,42.40222349999999,42.40222349999999,42.40222349999999,42.48616659999993,left,0.07214279999993778,None,42.48622660000001,42.48650930000008,,,,,252857,,,001,2024-12-26_23h14.25.848,glasgowFaceRecognition-Yagmur,2024.2.4,59.98166960173961,2024-12-26 23h14.31.501471 +0300,
different/076_109_R.jpg,right,different,180,64,64,0,right,0.16411799999991672,None,0,64,64,64,42.502066499999955,,,,,,,,,42.4946903,42.502066499999955,42.502066499999955,42.502066499999955,42.502066499999955,42.502066499999955,42.502066499999955,42.669558900000084,right,0.16411799999991672,None,42.669620800000075,42.66989239999998,,,,,252857,,,001,2024-12-26_23h14.25.848,glasgowFaceRecognition-Yagmur,2024.2.4,59.98166960173961,2024-12-26 23h14.31.501471 +0300,
different/077_133_R.jpg,right,different,180,65,65,0,left,0.03655340000000251,None,0,65,65,65,42.68573659999993,,,,,,,,,42.67807719999996,42.68573659999993,42.68573659999993,42.68573659999993,42.68573659999993,42.68573659999993,42.68573659999993,42.736254200000076,left,0.03655340000000251,None,42.73630789999993,42.73657669999989,,,,,252857,,,001,2024-12-26_23h14.25.848,glasgowFaceRecognition-Yagmur,2024.2.4,59.98166960173961,2024-12-26 23h14.31.501471 +0300,
different/091_283_R.jpg,right,different,180,66,66,0,right,0.1139277999998285,None,0,66,66,66,42.75198580000006,,,,,,,,,42.744600799999944,42.75198580000006,42.75198580000006,42.75198580000006,42.75198580000006,42.75198580000006,42.75198580000006,42.8693839,right,0.1139277999998285,None,42.8694395,42.869724099999985,,,,,252857,,,001,2024-12-26_23h14.25.848,glasgowFaceRecognition-Yagmur,2024.2.4,59.98166960173961,2024-12-26 23h14.31.501471 +0300,
different/092_283_L.jpg,right,different,180,67,67,0,left,0.09980130000008103,None,0,67,67,67,42.88549760000001,,,,,,,,,42.87804499999993,42.88549760000001,42.88549760000001,42.88549760000001,42.88549760000001,42.88549760000001,42.88549760000001,42.98632769999995,left,0.09980130000008103,None,42.98639159999993,42.98671409999997,,,,,252857,,,001,2024-12-26_23h14.25.848,glasgowFaceRecognition-Yagmur,2024.2.4,59.98166960173961,2024-12-26 23h14.31.501471 +0300,
different/102_224_R.jpg,right,different,180,68,68,0,right,0.13570759999993243,None,0,68,68,68,43.002176499999905,,,,,,,,,42.99647989999994,43.002176499999905,43.002176499999905,43.002176499999905,43.002176499999905,43.002176499999905,43.002176499999905,43.15314259999991,right,0.13570759999993243,None,43.15321679999988,43.15360170000008,,,,,252857,,,001,2024-12-26_23h14.25.848,glasgowFaceRecognition-Yagmur,2024.2.4,59.98166960173961,2024-12-26 23h14.31.501471 +0300,
different/106_224_L.jpg,right,different,180,69,69,0,left,0.12934699999982513,None,0,69,69,69,43.16961500000002,,,,,,,,,43.165454400000044,43.16961500000002,43.16961500000002,43.16961500000002,43.16961500000002,43.16961500000002,43.16961500000002,43.30297389999987,left,0.12934699999982513,None,43.30302779999988,43.30331380000007,,,,,252857,,,001,2024-12-26_23h14.25.848,glasgowFaceRecognition-Yagmur,2024.2.4,59.98166960173961,2024-12-26 23h14.31.501471 +0300,
different/116_067_R.jpg,right,different,180,70,70,0,right,0.2278627000000597,None,0,70,70,70,43.31886450000002,,,,,,,,,43.31167879999998,43.31886450000002,43.31886450000002,43.31886450000002,43.31886450000002,43.31886450000002,43.31886450000002,43.55320490000008,right,0.2278627000000597,None,43.55329039999992,43.55371459999992,,,,,252857,,,001,2024-12-26_23h14.25.848,glasgowFaceRecognition-Yagmur,2024.2.4,59.98166960173961,2024-12-26 23h14.31.501471 +0300,
different/120_133_R.jpg,right,different,180,71,71,0,left,0.3507479999998395,None,0,71,71,71,43.57118179999998,,,,,,,,,43.566730100000086,43.57118179999998,43.57118179999998,43.57118179999998,43.57118179999998,43.57118179999998,43.57118179999998,43.93694349999987,left,0.3507479999998395,None,43.937048900000036,43.93756480000002,,,,,252857,,,001,2024-12-26_23h14.25.848,glasgowFaceRecognition-Yagmur,2024.2.4,59.98166960173961,2024-12-26 23h14.31.501471 +0300,
different/132_210_R.jpg,right,different,180,72,72,0,right,0.16435420000016165,None,0,72,72,72,43.9570733999999,,,,,,,,,43.95254060000002,43.9570733999999,43.9570733999999,43.9570733999999,43.9570733999999,43.9570733999999,43.9570733999999,44.13661830000001,right,0.16435420000016165,None,44.13671210000007,44.13719020000008,,,,,252857,,,001,2024-12-26_23h14.25.848,glasgowFaceRecognition-Yagmur,2024.2.4,59.98166960173961,2024-12-26 23h14.31.501471 +0300,
different/143_254_R.jpg,right,different,180,73,73,0,left,0.34153429999992113,None,0,73,73,73,44.155774199999996,,,,,,,,,44.15133300000002,44.155774199999996,44.155774199999996,44.155774199999996,44.155774199999996,44.155774199999996,44.155774199999996,44.50298840000005,left,0.34153429999992113,None,44.50307389999989,44.503422,,,,,252857,,,001,2024-12-26_23h14.25.848,glasgowFaceRecognition-Yagmur,2024.2.4,59.98166960173961,2024-12-26 23h14.31.501471 +0300,
different/209_224_R.jpg,right,different,180,74,74,0,left,0.3154885000001286,None,0,74,74,74,44.51914929999998,,,,,,,,,44.514391899999964,44.51914929999998,44.51914929999998,44.51914929999998,44.51914929999998,44.51914929999998,44.51914929999998,44.83595500000001,left,0.3154885000001286,None,44.836024799999905,44.8363589999999,,,,,252857,,,001,2024-12-26_23h14.25.848,glasgowFaceRecognition-Yagmur,2024.2.4,59.98166960173961,2024-12-26 23h14.31.501471 +0300,
different/254_287_L.jpg,right,different,180,75,75,0,right,0.3103883000001133,None,0,75,75,75,44.851977799999986,,,,,,,,,44.845608000000084,44.851977799999986,44.851977799999986,44.851977799999986,44.851977799999986,44.851977799999986,44.851977799999986,45.169354999999996,right,0.3103883000001133,None,45.16940890000001,45.169677099999944,,,,,252857,,,001,2024-12-26_23h14.25.848,glasgowFaceRecognition-Yagmur,2024.2.4,59.98166960173961,2024-12-26 23h14.31.501471 +0300,
different/261_254_L.jpg,right,different,180,76,76,0,left,0.10561540000003333,None,0,76,76,76,45.18501100000003,,,,,,,,,45.17779130000008,45.18501100000003,45.18501100000003,45.18501100000003,45.18501100000003,45.18501100000003,45.18501100000003,45.302711300000055,left,0.10561540000003333,None,45.30279419999988,45.30321920000006,,,,,252857,,,001,2024-12-26_23h14.25.848,glasgowFaceRecognition-Yagmur,2024.2.4,59.98166960173961,2024-12-26 23h14.31.501471 +0300,
different/282_108_R.jpg,right,different,180,77,77,0,right,0.11603669999999511,None,0,77,77,77,45.318326899999875,,,,,,,,,45.31317390000004,45.318326899999875,45.318326899999875,45.318326899999875,45.318326899999875,45.318326899999875,45.318326899999875,45.43604299999993,right,0.11603669999999511,None,45.43612359999997,45.43648609999991,,,,,252857,,,001,2024-12-26_23h14.25.848,glasgowFaceRecognition-Yagmur,2024.2.4,59.98166960173961,2024-12-26 23h14.31.501471 +0300,
different/296_235_L.jpg,right,different,180,78,78,0,left,0.10069079999993846,None,0,78,78,78,45.45320149999998,,,,,,,,,45.44863280000004,45.45320149999998,45.45320149999998,45.45320149999998,45.45320149999998,45.45320149999998,45.45320149999998,45.569128399999954,left,0.10069079999993846,None,45.5691996999999,45.56955579999999,,,,,252857,,,001,2024-12-26_23h14.25.848,glasgowFaceRecognition-Yagmur,2024.2.4,59.98166960173961,2024-12-26 23h14.31.501471 +0300,
different/303_037_R.jpg,right,different,180,79,79,0,right,0.12965080000003582,None,0,79,79,79,45.585220200000094,,,,,,,,,45.5802670999999,45.585220200000094,45.585220200000094,45.585220200000094,45.585220200000094,45.585220200000094,45.585220200000094,45.71926589999998,right,0.12965080000003582,None,45.719320299999936,45.719590500000095,,,,,252857,,,001,2024-12-26_23h14.25.848,glasgowFaceRecognition-Yagmur,2024.2.4,59.98166960173961,2024-12-26 23h14.31.501471 +0300,
,,,,,,,,,,,,,,,,,,,,,,,,,,,,,,,,,,,,45.71965660000001,45.73478290000003,50.73370829999999,50.718122799999946,252857,,,001,2024-12-26_23h14.25.848,glasgowFaceRecognition-Yagmur,2024.2.4,59.98166960173961,2024-12-26 23h14.31.501471 +0300,
