imageFile,corrAns,sameOrDiff,ori,thisN,thisTrialN,thisRepN,keyResp.keys,keyResp.rt,keyResp.duration,trials_faceRecognition.thisRepN,trials_faceRecognition.thisTrialN,trials_faceRecognition.thisN,trials_faceRecognition.thisIndex,thisRow.t,notes,instructions.started,text.started,key_space.started,instructions.stopped,key_space.keys,key_space.rt,key_space.duration,trial.started,same_text.started,different_text.started,image.started,keyResp.started,arrow_left.started,arrow_right.started,trial.stopped,trials_faceRecognition.keyResp.keys,trials_faceRecognition.keyResp.rt,trials_faceRecognition.keyResp.duration,feedback.started,textCorr.started,same_text_cont.started,different_text_cont.started,image_cont.started,arrow_left_cont.started,arrow_right_cont.started,feedback.stopped,textCorr.stopped,same_text_cont.stopped,different_text_cont.stopped,image_cont.stopped,arrow_left_cont.stopped,arrow_right_cont.stopped,thanks_message.started,thank_you_message.started,thank_you_message.stopped,thanks_message.stopped,Participant ID,Age,Gender,session,date,expName,psychopyVersion,frameRate,expStart,
,,,,,,,,,,,,,,,,0.001626899999791931,0.004367200000160665,0.004367200000160665,2.7175679000001765,space,2.7044113000001744,None,,,,,,,,,,,,,,,,,,,,,,,,,,,,,,342704,,,001,2024-12-27_00h04.32.695,glasgowFaceRecognition-Yagmur,2024.2.4,59.99124127864539,2024-12-27 00h04.37.671492 +0300,
same/020_C2_DV.jpg,left,same,0,0,0,0,left,2.7713518000000477,None,0,0,0,0,2.7931672000004255,,,,,,,,,2.757706800000051,2.7931672000004255,2.7931672000004255,2.7931672000004255,2.7931672000004255,2.7931672000004255,2.7931672000004255,5.566796500000237,left,2.7713518000000477,None,5.586642399999619,5.60026949999974,5.60026949999974,5.60026949999974,5.60026949999974,5.60026949999974,5.60026949999974,5.78174349999972,,,,,,,,,,,342704,,,001,2024-12-27_00h04.32.695,glasgowFaceRecognition-Yagmur,2024.2.4,59.99124127864539,2024-12-27 00h04.37.671492 +0300,
same/025_C2_DV.jpg,left,same,0,1,1,0,left,0.4442155000006096,None,0,1,1,1,5.800687300000391,,,,,,,,,5.793044500000178,5.800687300000391,5.800687300000391,5.800687300000391,5.800687300000391,5.800687300000391,5.800687300000391,6.249434299999848,left,0.4442155000006096,None,6.260538499999711,6.267939000000297,6.267939000000297,6.267939000000297,6.267939000000297,6.267939000000297,6.267939000000297,6.4648606000000655,,,,,,,,,,,342704,,,001,2024-12-27_00h04.32.695,glasgowFaceRecognition-Yagmur,2024.2.4,59.99124127864539,2024-12-27 00h04.37.671492 +0300,
same/068_C2_DV.jpg,left,same,0,2,2,0,left,0.28898620000018127,None,0,2,2,2,6.483825299999808,,,,,,,,,6.475333399999727,6.483825299999808,6.483825299999808,6.483825299999808,6.483825299999808,6.483825299999808,6.483825299999808,6.782413300000371,left,0.28898620000018127,None,6.792427100000168,6.800124800000049,6.800124800000049,6.800124800000049,6.800124800000049,6.800124800000049,6.800124800000049,6.998141000000032,,,,,,,,,,,342704,,,001,2024-12-27_00h04.32.695,glasgowFaceRecognition-Yagmur,2024.2.4,59.99124127864539,2024-12-27 00h04.37.671492 +0300,
same/069_C2_DV.jpg,left,same,0,3,3,0,left,0.2518505999996705,None,0,3,3,3,7.017324000000372,,,,,,,,,7.007606199999827,7.017324000000372,7.017324000000372,7.017324000000372,7.017324000000372,7.017324000000372,7.017324000000372,7.2820440000004965,left,0.2518505999996705,None,7.291258999999627,7.300367300000289,7.300367300000289,7.300367300000289,7.300367300000289,7.300367300000289,7.300367300000289,7.498057300000255,,,,,,,,,,,342704,,,001,2024-12-27_00h04.32.695,glasgowFaceRecognition-Yagmur,2024.2.4,59.99124127864539,2024-12-27 00h04.37.671492 +0300,
same/074_C2_DV.jpg,left,same,0,4,4,0,left,0.2545689999997194,None,0,4,4,4,7.517958800000088,,,,,,,,,7.510605000000396,7.517958800000088,7.517958800000088,7.517958800000088,7.517958800000088,7.517958800000088,7.517958800000088,7.78315769999972,left,0.2545689999997194,None,7.800502500000221,7.808966700000383,7.808966700000383,7.808966700000383,7.808966700000383,7.808966700000383,7.808966700000383,7.9982743999999,,,,,,,,,,,342704,,,001,2024-12-27_00h04.32.695,glasgowFaceRecognition-Yagmur,2024.2.4,59.99124127864539,2024-12-27 00h04.37.671492 +0300,
same/075_DV_C2.jpg,left,same,0,5,5,0,left,0.2190852999992785,None,0,5,5,5,8.017381700000442,,,,,,,,,8.007224300000416,8.017381700000442,8.017381700000442,8.017381700000442,8.017381700000442,8.017381700000442,8.017381700000442,8.248715800000355,left,0.2190852999992785,None,8.258184899999833,8.26700030000029,8.26700030000029,8.26700030000029,8.26700030000029,8.26700030000029,8.26700030000029,8.464689100000214,,,,,,,,,,,342704,,,001,2024-12-27_00h04.32.695,glasgowFaceRecognition-Yagmur,2024.2.4,59.99124127864539,2024-12-27 00h04.37.671492 +0300,
same/081_C2_DV.jpg,left,same,0,6,6,0,left,0.22510799999963638,None,0,6,6,6,8.483445599999868,,,,,,,,,8.473746599999686,8.483445599999868,8.483445599999868,8.483445599999868,8.483445599999868,8.483445599999868,8.483445599999868,8.715581700000257,left,0.22510799999963638,None,8.727799999999661,8.73564510000051,8.73564510000051,8.73564510000051,8.73564510000051,8.73564510000051,8.73564510000051,8.93111190000036,,,,,,,,,,,342704,,,001,2024-12-27_00h04.32.695,glasgowFaceRecognition-Yagmur,2024.2.4,59.99124127864539,2024-12-27 00h04.37.671492 +0300,
same/085_C2_DV.jpg,left,same,0,7,7,0,left,0.17315169999983482,None,0,7,7,7,8.950315099999898,,,,,,,,,8.94009240000014,8.950315099999898,8.950315099999898,8.950315099999898,8.950315099999898,8.950315099999898,8.950315099999898,9.13207650000004,left,0.17315169999983482,None,9.142198800000187,9.149913999999626,9.149913999999626,9.149913999999626,9.149913999999626,9.149913999999626,9.149913999999626,9.34772940000039,,,,,,,,,,,342704,,,001,2024-12-27_00h04.32.695,glasgowFaceRecognition-Yagmur,2024.2.4,59.99124127864539,2024-12-27 00h04.37.671492 +0300,
same/092_C2_DV.jpg,left,same,0,8,8,0,left,0.20599499999934778,None,0,8,8,8,9.366872800000237,,,,,,,,,9.357673100000284,9.366872800000237,9.366872800000237,9.366872800000237,9.366872800000237,9.366872800000237,9.366872800000237,9.581753200000094,left,0.20599499999934778,None,9.591512799999691,9.599992700000257,9.599992700000257,9.599992700000257,9.599992700000257,9.599992700000257,9.599992700000257,9.797669399999904,,,,,,,,,,,342704,,,001,2024-12-27_00h04.32.695,glasgowFaceRecognition-Yagmur,2024.2.4,59.99124127864539,2024-12-27 00h04.37.671492 +0300,
same/102_C2_DV.jpg,left,same,0,9,9,0,left,0.2037663999999495,None,0,9,9,9,9.816743700000188,,,,,,,,,9.807359399999768,9.816743700000188,9.816743700000188,9.816743700000188,9.816743700000188,9.816743700000188,9.816743700000188,10.032014399999753,left,0.2037663999999495,None,10.041510500000186,10.049683799999912,10.049683799999912,10.049683799999912,10.049683799999912,10.049683799999912,10.049683799999912,10.247780200000307,,,,,,,,,,,342704,,,001,2024-12-27_00h04.32.695,glasgowFaceRecognition-Yagmur,2024.2.4,59.99124127864539,2024-12-27 00h04.37.671492 +0300,
same/108_DV_C2.jpg,left,same,0,10,10,0,left,0.1468313000004855,None,0,10,10,10,10.266671200000019,,,,,,,,,10.256611499999963,10.266671200000019,10.266671200000019,10.266671200000019,10.266671200000019,10.266671200000019,10.266671200000019,10.41517930000009,left,0.1468313000004855,None,10.424802900000032,10.432995099999971,10.432995099999971,10.432995099999971,10.432995099999971,10.432995099999971,10.432995099999971,10.631010699999933,,,,,,,,,,,342704,,,001,2024-12-27_00h04.32.695,glasgowFaceRecognition-Yagmur,2024.2.4,59.99124127864539,2024-12-27 00h04.37.671492 +0300,
same/115_C2_DV.jpg,left,same,0,11,11,0,left,0.17077809999955207,None,0,11,11,11,10.64981760000046,,,,,,,,,10.63981799999965,10.64981760000046,10.64981760000046,10.64981760000046,10.64981760000046,10.64981760000046,10.64981760000046,10.831644400000187,left,0.17077809999955207,None,10.845037199999751,10.852185400000053,10.852185400000053,10.852185400000053,10.852185400000053,10.852185400000053,10.852185400000053,11.04771619999974,,,,,,,,,,,342704,,,001,2024-12-27_00h04.32.695,glasgowFaceRecognition-Yagmur,2024.2.4,59.99124127864539,2024-12-27 00h04.37.671492 +0300,
same/120_DV_C2.jpg,left,same,0,12,12,0,left,0.14610910000010335,None,0,12,12,12,11.067091400000209,,,,,,,,,11.056906800000434,11.067091400000209,11.067091400000209,11.067091400000209,11.067091400000209,11.067091400000209,11.067091400000209,11.214947299999949,left,0.14610910000010335,None,11.22475459999987,11.233068300000014,11.233068300000014,11.233068300000014,11.233068300000014,11.233068300000014,11.233068300000014,11.430775300000278,,,,,,,,,,,342704,,,001,2024-12-27_00h04.32.695,glasgowFaceRecognition-Yagmur,2024.2.4,59.99124127864539,2024-12-27 00h04.37.671492 +0300,
same/129_C2_DV.jpg,left,same,0,13,13,0,left,0.16306110000004992,None,0,13,13,13,11.45007110000006,,,,,,,,,11.439943800000037,11.45007110000006,11.45007110000006,11.45007110000006,11.45007110000006,11.45007110000006,11.45007110000006,11.614888699999938,left,0.16306110000004992,None,11.624332700000195,11.633003099999769,11.633003099999769,11.633003099999769,11.633003099999769,11.633003099999769,11.633003099999769,11.830866799999967,,,,,,,,,,,342704,,,001,2024-12-27_00h04.32.695,glasgowFaceRecognition-Yagmur,2024.2.4,59.99124127864539,2024-12-27 00h04.37.671492 +0300,
same/136_C2_DV.jpg,left,same,0,14,14,0,left,0.13660280000021885,None,0,14,14,14,11.852415299999848,,,,,,,,,11.845615199999884,11.852415299999848,11.852415299999848,11.852415299999848,11.852415299999848,11.852415299999848,11.852415299999848,11.998300199999903,left,0.13660280000021885,None,12.00832360000004,12.016561600000387,12.016561600000387,12.016561600000387,12.016561600000387,12.016561600000387,12.016561600000387,12.214309799999683,,,,,,,,,,,342704,,,001,2024-12-27_00h04.32.695,glasgowFaceRecognition-Yagmur,2024.2.4,59.99124127864539,2024-12-27 00h04.37.671492 +0300,
same/139_DV_C2.jpg,left,same,0,15,15,0,left,0.14673819999916304,None,0,15,15,15,12.233164399999623,,,,,,,,,12.223471199999949,12.233164399999623,12.233164399999623,12.233164399999623,12.233164399999623,12.233164399999623,12.233164399999623,12.381753900000149,left,0.14673819999916304,None,12.39199329999974,12.399743500000113,12.399743500000113,12.399743500000113,12.399743500000113,12.399743500000113,12.399743500000113,12.597506299999623,,,,,,,,,,,342704,,,001,2024-12-27_00h04.32.695,glasgowFaceRecognition-Yagmur,2024.2.4,59.99124127864539,2024-12-27 00h04.37.671492 +0300,
same/168_C2_DV.jpg,left,same,0,16,16,0,left,0.14857759999995324,None,0,16,16,16,12.616258799999741,,,,,,,,,12.606501000000208,12.616258799999741,12.616258799999741,12.616258799999741,12.616258799999741,12.616258799999741,12.616258799999741,12.781536700000288,left,0.14857759999995324,None,12.791218800000024,12.799364700000297,12.799364700000297,12.799364700000297,12.799364700000297,12.799364700000297,12.799364700000297,12.997562399999879,,,,,,,,,,,342704,,,001,2024-12-27_00h04.32.695,glasgowFaceRecognition-Yagmur,2024.2.4,59.99124127864539,2024-12-27 00h04.37.671492 +0300,
same/170_DV_C2.jpg,left,same,0,17,17,0,left,0.1480727999996816,None,0,17,17,17,13.016266100000394,,,,,,,,,13.006731399999808,13.016266100000394,13.016266100000394,13.016266100000394,13.016266100000394,13.016266100000394,13.016266100000394,13.165688400000363,left,0.1480727999996816,None,13.17496519999986,13.182937200000197,13.182937200000197,13.182937200000197,13.182937200000197,13.182937200000197,13.182937200000197,13.380721399999857,,,,,,,,,,,342704,,,001,2024-12-27_00h04.32.695,glasgowFaceRecognition-Yagmur,2024.2.4,59.99124127864539,2024-12-27 00h04.37.671492 +0300,
same/235_C2_DV.jpg,left,same,0,18,18,0,left,0.20523620000039955,None,0,18,18,18,13.399481700000251,,,,,,,,,13.390270300000338,13.399481700000251,13.399481700000251,13.399481700000251,13.399481700000251,13.399481700000251,13.399481700000251,13.614685399999871,left,0.20523620000039955,None,13.624677300000258,13.632878500000515,13.632878500000515,13.632878500000515,13.632878500000515,13.632878500000515,13.632878500000515,13.830472499999814,,,,,,,,,,,342704,,,001,2024-12-27_00h04.32.695,glasgowFaceRecognition-Yagmur,2024.2.4,59.99124127864539,2024-12-27 00h04.37.671492 +0300,
same/303_DV_C2.jpg,left,same,0,19,19,0,left,0.15387439999994967,None,0,19,19,19,13.85068070000034,,,,,,,,,13.843997500000114,13.85068070000034,13.85068070000034,13.85068070000034,13.85068070000034,13.85068070000034,13.85068070000034,14.014628200000516,left,0.15387439999994967,None,14.023722300000372,14.032673200000318,14.032673200000318,14.032673200000318,14.032673200000318,14.032673200000318,14.032673200000318,14.230408100000204,,,,,,,,,,,342704,,,001,2024-12-27_00h04.32.695,glasgowFaceRecognition-Yagmur,2024.2.4,59.99124127864539,2024-12-27 00h04.37.671492 +0300,
different/013_235_R.jpg,right,different,0,20,20,0,left,0.1305558000003657,None,0,20,20,20,14.249178199999733,,,,,,,,,14.242812299999969,14.249178199999733,14.249178199999733,14.249178199999733,14.249178199999733,14.249178199999733,14.249178199999733,14.381011499999659,left,0.1305558000003657,None,14.396046699999715,14.403053,14.403053,14.403053,14.403053,14.403053,14.403053,14.596650499999669,,,,,,,,,,,342704,,,001,2024-12-27_00h04.32.695,glasgowFaceRecognition-Yagmur,2024.2.4,59.99124127864539,2024-12-27 00h04.37.671492 +0300,
different/019_074_L.jpg,right,different,0,21,21,0,left,0.3916412999997192,None,0,21,21,21,14.613209400000414,,,,,,,,,14.605739399999948,14.613209400000414,14.613209400000414,14.613209400000414,14.613209400000414,14.613209400000414,14.613209400000414,15.01406870000028,left,0.3916412999997192,None,15.02364260000013,15.030122799999845,15.030122799999845,15.030122799999845,15.030122799999845,15.030122799999845,15.030122799999845,15.213797899999918,15.230039600000055,15.230039600000055,15.230039600000055,15.230039600000055,15.230039600000055,15.230039600000055,,,,,342704,,,001,2024-12-27_00h04.32.695,glasgowFaceRecognition-Yagmur,2024.2.4,59.99124127864539,2024-12-27 00h04.37.671492 +0300,
different/025_235_L.jpg,right,different,0,22,22,0,left,0.15815829999974085,None,0,22,22,22,15.230039600000055,,,,,,,,,15.223633900000095,15.230039600000055,15.230039600000055,15.230039600000055,15.230039600000055,15.230039600000055,15.230039600000055,15.398738800000501,left,0.15815829999974085,None,15.410847799999829,15.415266199999678,15.415266199999678,15.415266199999678,15.415266199999678,15.415266199999678,15.415266199999678,15.613278099999661,,,,,,,,,,,342704,,,001,2024-12-27_00h04.32.695,glasgowFaceRecognition-Yagmur,2024.2.4,59.99124127864539,2024-12-27 00h04.37.671492 +0300,
different/049_218_L.jpg,right,different,0,23,23,0,left,0.09513299999980518,None,0,23,23,23,15.630056199999672,,,,,,,,,15.6229871000005,15.630056199999672,15.630056199999672,15.630056199999672,15.630056199999672,15.630056199999672,15.630056199999672,15.730628500000421,left,0.09513299999980518,None,15.739901500000087,15.746752000000015,15.746752000000015,15.746752000000015,15.746752000000015,15.746752000000015,15.746752000000015,15.930514100000437,15.946468899999672,15.946468899999672,15.946468899999672,15.946468899999672,15.946468899999672,15.946468899999672,,,,,342704,,,001,2024-12-27_00h04.32.695,glasgowFaceRecognition-Yagmur,2024.2.4,59.99124127864539,2024-12-27 00h04.37.671492 +0300,
different/076_109_R.jpg,right,different,0,24,24,0,left,0.10682570000062697,None,0,24,24,24,15.946468899999672,,,,,,,,,15.939555300000393,15.946468899999672,15.946468899999672,15.946468899999672,15.946468899999672,15.946468899999672,15.946468899999672,16.063773900000342,left,0.10682570000062697,None,16.073280599999634,16.080050600000504,16.080050600000504,16.080050600000504,16.080050600000504,16.080050600000504,16.080050600000504,16.263670700000148,16.27977319999991,16.27977319999991,16.27977319999991,16.27977319999991,16.27977319999991,16.27977319999991,,,,,342704,,,001,2024-12-27_00h04.32.695,glasgowFaceRecognition-Yagmur,2024.2.4,59.99124127864539,2024-12-27 00h04.37.671492 +0300,
different/077_133_R.jpg,right,different,0,25,25,0,right,0.020868799999334442,None,0,25,25,25,16.27977319999991,,,,,,,,,16.272132600000077,16.27977319999991,16.27977319999991,16.27977319999991,16.27977319999991,16.27977319999991,16.27977319999991,16.313917700000275,right,0.020868799999334442,None,16.325172500000008,16.329939100000047,16.329939100000047,16.329939100000047,16.329939100000047,16.329939100000047,16.329939100000047,16.513340499999686,16.529793900000186,16.529793900000186,16.529793900000186,16.529793900000186,16.529793900000186,16.529793900000186,,,,,342704,,,001,2024-12-27_00h04.32.695,glasgowFaceRecognition-Yagmur,2024.2.4,59.99124127864539,2024-12-27 00h04.37.671492 +0300,
different/091_283_R.jpg,right,different,0,26,26,0,right,0.08295950000047014,None,0,26,26,26,16.529793900000186,,,,,,,,,16.52256159999979,16.529793900000186,16.529793900000186,16.529793900000186,16.529793900000186,16.529793900000186,16.529793900000186,16.613710999999967,right,0.08295950000047014,None,16.622793499999716,16.629615699999704,16.629615699999704,16.629615699999704,16.629615699999704,16.629615699999704,16.629615699999704,16.813627300000007,16.82983839999997,16.82983839999997,16.82983839999997,16.82983839999997,16.82983839999997,16.82983839999997,,,,,342704,,,001,2024-12-27_00h04.32.695,glasgowFaceRecognition-Yagmur,2024.2.4,59.99124127864539,2024-12-27 00h04.37.671492 +0300,
different/092_283_L.jpg,right,different,0,27,27,0,right,0.20675589999973454,None,0,27,27,27,16.82983839999997,,,,,,,,,16.822129600000153,16.82983839999997,16.82983839999997,16.82983839999997,16.82983839999997,16.82983839999997,16.82983839999997,17.0470021000001,right,0.20675589999973454,None,17.056300700000065,17.06308809999973,17.06308809999973,17.06308809999973,17.06308809999973,17.06308809999973,17.06308809999973,17.24677100000008,17.263108099999954,17.263108099999954,17.263108099999954,17.263108099999954,17.263108099999954,17.263108099999954,,,,,342704,,,001,2024-12-27_00h04.32.695,glasgowFaceRecognition-Yagmur,2024.2.4,59.99124127864539,2024-12-27 00h04.37.671492 +0300,
different/102_224_R.jpg,right,different,0,28,28,0,right,0.15728020000005927,None,0,28,28,28,17.263108099999954,,,,,,,,,17.255615600000056,17.263108099999954,17.263108099999954,17.263108099999954,17.263108099999954,17.263108099999954,17.263108099999954,17.43035770000006,right,0.15728020000005927,None,17.438970600000175,17.446111600000222,17.446111600000222,17.446111600000222,17.446111600000222,17.446111600000222,17.446111600000222,17.629986400000234,17.64633479999975,17.64633479999975,17.64633479999975,17.64633479999975,17.64633479999975,17.64633479999975,,,,,342704,,,001,2024-12-27_00h04.32.695,glasgowFaceRecognition-Yagmur,2024.2.4,59.99124127864539,2024-12-27 00h04.37.671492 +0300,
different/106_224_L.jpg,right,different,0,29,29,0,right,0.18110950000027515,None,0,29,29,29,17.64633479999975,,,,,,,,,17.63877760000014,17.64633479999975,17.64633479999975,17.64633479999975,17.64633479999975,17.64633479999975,17.64633479999975,17.830192700000225,right,0.18110950000027515,None,17.842118800000208,17.84621470000002,17.84621470000002,17.84621470000002,17.84621470000002,17.84621470000002,17.84621470000002,18.02996600000006,18.046301000000312,18.046301000000312,18.046301000000312,18.046301000000312,18.046301000000312,18.046301000000312,,,,,342704,,,001,2024-12-27_00h04.32.695,glasgowFaceRecognition-Yagmur,2024.2.4,59.99124127864539,2024-12-27 00h04.37.671492 +0300,
different/116_067_R.jpg,right,different,0,30,30,0,right,0.1574389000006704,None,0,30,30,30,18.046301000000312,,,,,,,,,18.038294400000268,18.046301000000312,18.046301000000312,18.046301000000312,18.046301000000312,18.046301000000312,18.046301000000312,18.21335960000033,right,0.1574389000006704,None,18.2220954000004,18.229674400000476,18.229674400000476,18.229674400000476,18.229674400000476,18.229674400000476,18.229674400000476,18.413204499999665,18.42933600000015,18.42933600000015,18.42933600000015,18.42933600000015,18.42933600000015,18.42933600000015,,,,,342704,,,001,2024-12-27_00h04.32.695,glasgowFaceRecognition-Yagmur,2024.2.4,59.99124127864539,2024-12-27 00h04.37.671492 +0300,
different/120_133_R.jpg,right,different,0,31,31,0,right,0.17538389999936044,None,0,31,31,31,18.42933600000015,,,,,,,,,18.421366200000193,18.42933600000015,18.42933600000015,18.42933600000015,18.42933600000015,18.42933600000015,18.42933600000015,18.613700699999754,right,0.17538389999936044,None,18.622774100000242,18.629364899999928,18.629364899999928,18.629364899999928,18.629364899999928,18.629364899999928,18.629364899999928,18.813386900000296,18.82931389999976,18.82931389999976,18.82931389999976,18.82931389999976,18.82931389999976,18.82931389999976,,,,,342704,,,001,2024-12-27_00h04.32.695,glasgowFaceRecognition-Yagmur,2024.2.4,59.99124127864539,2024-12-27 00h04.37.671492 +0300,
different/132_210_R.jpg,right,different,0,32,32,0,right,0.18312190000051487,None,0,32,32,32,18.82931389999976,,,,,,,,,18.822559199999887,18.82931389999976,18.82931389999976,18.82931389999976,18.82931389999976,18.82931389999976,18.82931389999976,19.013654100000167,right,0.18312190000051487,None,19.022507900000164,19.02935929999967,19.02935929999967,19.02935929999967,19.02935929999967,19.02935929999967,19.02935929999967,19.212985799999842,19.229502199999843,19.229502199999843,19.229502199999843,19.229502199999843,19.229502199999843,19.229502199999843,,,,,342704,,,001,2024-12-27_00h04.32.695,glasgowFaceRecognition-Yagmur,2024.2.4,59.99124127864539,2024-12-27 00h04.37.671492 +0300,
different/143_254_R.jpg,right,different,0,33,33,0,right,0.19076180000047316,None,0,33,33,33,19.229502199999843,,,,,,,,,19.22157520000019,19.229502199999843,19.229502199999843,19.229502199999843,19.229502199999843,19.229502199999843,19.229502199999843,19.430293000000347,right,0.19076180000047316,None,19.43939810000029,19.445947899999737,19.445947899999737,19.445947899999737,19.445947899999737,19.445947899999737,19.445947899999737,19.629828500000258,19.64613780000036,19.64613780000036,19.64613780000036,19.64613780000036,19.64613780000036,19.64613780000036,,,,,342704,,,001,2024-12-27_00h04.32.695,glasgowFaceRecognition-Yagmur,2024.2.4,59.99124127864539,2024-12-27 00h04.37.671492 +0300,
different/209_224_R.jpg,right,different,0,34,34,0,right,0.030436200000622193,None,0,34,34,34,19.64613780000036,,,,,,,,,19.63860250000016,19.64613780000036,19.64613780000036,19.64613780000036,19.64613780000036,19.64613780000036,19.64613780000036,19.680296000000453,right,0.030436200000622193,None,19.689194200000202,19.69620930000019,19.69620930000019,19.69620930000019,19.69620930000019,19.69620930000019,19.69620930000019,19.87987499999963,19.89592900000025,19.89592900000025,19.89592900000025,19.89592900000025,19.89592900000025,19.89592900000025,,,,,342704,,,001,2024-12-27_00h04.32.695,glasgowFaceRecognition-Yagmur,2024.2.4,59.99124127864539,2024-12-27 00h04.37.671492 +0300,
different/254_287_L.jpg,right,different,0,35,35,0,right,0.020995600000787817,None,0,35,35,35,19.89592900000025,,,,,,,,,19.888335599999664,19.89592900000025,19.89592900000025,19.89592900000025,19.89592900000025,19.89592900000025,19.89592900000025,19.930091600000196,right,0.020995600000787817,None,19.938980599999923,19.94643989999986,19.94643989999986,19.94643989999986,19.94643989999986,19.94643989999986,19.94643989999986,20.12960060000023,20.146111400000336,20.146111400000336,20.146111400000336,20.146111400000336,20.146111400000336,20.146111400000336,,,,,342704,,,001,2024-12-27_00h04.32.695,glasgowFaceRecognition-Yagmur,2024.2.4,59.99124127864539,2024-12-27 00h04.37.671492 +0300,
different/261_254_L.jpg,right,different,0,36,36,0,right,0.0338197000000946,None,0,36,36,36,20.146111400000336,,,,,,,,,20.13816399999996,20.146111400000336,20.146111400000336,20.146111400000336,20.146111400000336,20.146111400000336,20.146111400000336,20.19663539999965,right,0.0338197000000946,None,20.2052977000003,20.21260540000003,20.21260540000003,20.21260540000003,20.21260540000003,20.21260540000003,20.21260540000003,20.396394999999757,20.412608399999954,20.412608399999954,20.412608399999954,20.412608399999954,20.412608399999954,20.412608399999954,,,,,342704,,,001,2024-12-27_00h04.32.695,glasgowFaceRecognition-Yagmur,2024.2.4,59.99124127864539,2024-12-27 00h04.37.671492 +0300,
different/282_108_R.jpg,right,different,0,37,37,0,right,0.016472199999952863,None,0,37,37,37,20.412608399999954,,,,,,,,,20.406576700000187,20.412608399999954,20.412608399999954,20.412608399999954,20.412608399999954,20.412608399999954,20.412608399999954,20.430535999999847,right,0.016472199999952863,None,20.44082040000012,20.44588870000007,20.44588870000007,20.44588870000007,20.44588870000007,20.44588870000007,20.44588870000007,20.62945159999981,20.64573780000046,20.64573780000046,20.64573780000046,20.64573780000046,20.64573780000046,20.64573780000046,,,,,342704,,,001,2024-12-27_00h04.32.695,glasgowFaceRecognition-Yagmur,2024.2.4,59.99124127864539,2024-12-27 00h04.37.671492 +0300,
different/296_235_L.jpg,right,different,0,38,38,0,left,0.199311200000011,None,0,38,38,38,20.64573780000046,,,,,,,,,20.637950100000126,20.64573780000046,20.64573780000046,20.64573780000046,20.64573780000046,20.64573780000046,20.64573780000046,20.846663100000114,left,0.199311200000011,None,20.861787800000457,20.86601580000024,20.86601580000024,20.86601580000024,20.86601580000024,20.86601580000024,20.86601580000024,21.062490700000126,,,,,,,,,,,342704,,,001,2024-12-27_00h04.32.695,glasgowFaceRecognition-Yagmur,2024.2.4,59.99124127864539,2024-12-27 00h04.37.671492 +0300,
different/303_037_R.jpg,right,different,0,39,39,0,left,0.046049800000218966,None,0,39,39,39,21.079009099999894,,,,,,,,,21.071020800000042,21.079009099999894,21.079009099999894,21.079009099999894,21.079009099999894,21.079009099999894,21.079009099999894,21.12959529999989,left,0.046049800000218966,None,21.138508600000023,21.145702699999674,21.145702699999674,21.145702699999674,21.145702699999674,21.145702699999674,21.145702699999674,21.32957609999994,21.349636199999622,21.349636199999622,21.349636199999622,21.349636199999622,21.349636199999622,21.349636199999622,,,,,342704,,,001,2024-12-27_00h04.32.695,glasgowFaceRecognition-Yagmur,2024.2.4,59.99124127864539,2024-12-27 00h04.37.671492 +0300,
same/020_C2_DV.jpg,left,same,180,40,40,0,left,0.014611300000069605,None,0,40,40,40,21.349636199999622,,,,,,,,,21.340714599999956,21.349636199999622,21.349636199999622,21.349636199999622,21.349636199999622,21.349636199999622,21.349636199999622,21.38042620000033,left,0.014611300000069605,None,21.393018499999926,21.401504999999815,21.401504999999815,21.401504999999815,21.401504999999815,21.401504999999815,21.401504999999815,21.59614369999963,,,,,,,,,,,342704,,,001,2024-12-27_00h04.32.695,glasgowFaceRecognition-Yagmur,2024.2.4,59.99124127864539,2024-12-27 00h04.37.671492 +0300,
same/025_C2_DV.jpg,left,same,180,41,41,0,right,0.18872800000008283,None,0,41,41,41,21.61485410000023,,,,,,,,,21.606602500000008,21.61485410000023,21.61485410000023,21.61485410000023,21.61485410000023,21.61485410000023,21.61485410000023,21.813470699999925,right,0.18872800000008283,None,21.82291989999976,21.831882399999813,21.831882399999813,21.831882399999813,21.831882399999813,21.831882399999813,21.831882399999813,22.02975200000037,,,,,,,,,,,342704,,,001,2024-12-27_00h04.32.695,glasgowFaceRecognition-Yagmur,2024.2.4,59.99124127864539,2024-12-27 00h04.37.671492 +0300,
same/068_C2_DV.jpg,left,same,180,42,42,0,right,0.020580800000061572,None,0,42,42,42,22.048098299999765,,,,,,,,,22.03924509999979,22.048098299999765,22.048098299999765,22.048098299999765,22.048098299999765,22.048098299999765,22.048098299999765,22.08025859999998,right,0.020580800000061572,None,22.09225460000016,22.09945130000051,22.09945130000051,22.09945130000051,22.09945130000051,22.09945130000051,22.09945130000051,22.296308099999806,,,,,,,,,,,342704,,,001,2024-12-27_00h04.32.695,glasgowFaceRecognition-Yagmur,2024.2.4,59.99124127864539,2024-12-27 00h04.37.671492 +0300,
same/069_C2_DV.jpg,left,same,180,43,43,0,left,0.06517600000006496,None,0,43,43,43,22.31490599999961,,,,,,,,,22.305562499999724,22.31490599999961,22.31490599999961,22.31490599999961,22.31490599999961,22.31490599999961,22.31490599999961,22.381852100000287,left,0.06517600000006496,None,22.403047300000253,22.410984400000416,22.410984400000416,22.410984400000416,22.410984400000416,22.410984400000416,22.410984400000416,22.596105399999942,,,,,,,,,,,342704,,,001,2024-12-27_00h04.32.695,glasgowFaceRecognition-Yagmur,2024.2.4,59.99124127864539,2024-12-27 00h04.37.671492 +0300,
same/074_C2_DV.jpg,left,same,180,44,44,0,left,0.2539033000002746,None,0,44,44,44,22.614734300000237,,,,,,,,,22.605152699999962,22.614734300000237,22.614734300000237,22.614734300000237,22.614734300000237,22.614734300000237,22.614734300000237,22.880011600000216,left,0.2539033000002746,None,22.894267200000286,22.90159070000027,22.90159070000027,22.90159070000027,22.90159070000027,22.90159070000027,22.90159070000027,23.09610950000024,,,,,,,,,,,342704,,,001,2024-12-27_00h04.32.695,glasgowFaceRecognition-Yagmur,2024.2.4,59.99124127864539,2024-12-27 00h04.37.671492 +0300,
same/075_DV_C2.jpg,left,same,180,45,45,0,left,0.14592829999946844,None,0,45,45,45,23.114526899999873,,,,,,,,,23.105404400000225,23.114526899999873,23.114526899999873,23.114526899999873,23.114526899999873,23.114526899999873,23.114526899999873,23.263447199999973,left,0.14592829999946844,None,23.272827800000414,23.281812500000342,23.281812500000342,23.281812500000342,23.281812500000342,23.281812500000342,23.281812500000342,23.47958010000002,,,,,,,,,,,342704,,,001,2024-12-27_00h04.32.695,glasgowFaceRecognition-Yagmur,2024.2.4,59.99124127864539,2024-12-27 00h04.37.671492 +0300,
same/081_C2_DV.jpg,left,same,180,46,46,0,right,0.3309484000001248,None,0,46,46,46,23.497832400000334,,,,,,,,,23.48868180000045,23.497832400000334,23.497832400000334,23.497832400000334,23.497832400000334,23.497832400000334,23.497832400000334,23.830058499999723,right,0.3309484000001248,None,23.839364000000387,23.84849579999991,23.84849579999991,23.84849579999991,23.84849579999991,23.84849579999991,23.84849579999991,24.04623950000041,,,,,,,,,,,342704,,,001,2024-12-27_00h04.32.695,glasgowFaceRecognition-Yagmur,2024.2.4,59.99124127864539,2024-12-27 00h04.37.671492 +0300,
same/085_C2_DV.jpg,left,same,180,47,47,0,right,None,None,0,47,47,47,24.064645800000108,,,,,,,,,24.05508920000011,24.064645800000108,24.064645800000108,24.064645800000108,24.064645800000108,24.064645800000108,24.064645800000108,24.163254199999756,right,None,None,24.175289599999815,24.182798800000455,24.182798800000455,24.182798800000455,24.182798800000455,24.182798800000455,24.182798800000455,24.379433799999788,,,,,,,,,,,342704,,,001,2024-12-27_00h04.32.695,glasgowFaceRecognition-Yagmur,2024.2.4,59.99124127864539,2024-12-27 00h04.37.671492 +0300,
same/092_C2_DV.jpg,left,same,180,48,48,0,right,0.04730349999954342,None,0,48,48,48,24.397837600000457,,,,,,,,,24.388625200000206,24.397837600000457,24.397837600000457,24.397837600000457,24.397837600000457,24.397837600000457,24.397837600000457,24.446656899999653,right,0.04730349999954342,None,24.456406100000095,24.46471980000024,24.46471980000024,24.46471980000024,24.46471980000024,24.46471980000024,24.46471980000024,24.66251310000007,,,,,,,,,,,342704,,,001,2024-12-27_00h04.32.695,glasgowFaceRecognition-Yagmur,2024.2.4,59.99124127864539,2024-12-27 00h04.37.671492 +0300,
same/102_C2_DV.jpg,left,same,180,49,49,0,right,0.8351314000001366,None,0,49,49,49,24.68117979999988,,,,,,,,,24.671810499999992,24.68117979999988,24.68117979999988,24.68117979999988,24.68117979999988,24.68117979999988,24.68117979999988,25.530080200000157,right,0.8351314000001366,None,25.53992240000025,25.548237599999993,25.548237599999993,25.548237599999993,25.548237599999993,25.548237599999993,25.548237599999993,25.745756000000256,,,,,,,,,,,342704,,,001,2024-12-27_00h04.32.695,glasgowFaceRecognition-Yagmur,2024.2.4,59.99124127864539,2024-12-27 00h04.37.671492 +0300,
same/108_DV_C2.jpg,left,same,180,50,50,0,right,0.28032939999957307,None,0,50,50,50,25.764590200000384,,,,,,,,,25.75780440000017,25.764590200000384,25.764590200000384,25.764590200000384,25.764590200000384,25.764590200000384,25.764590200000384,26.04653690000032,right,0.28032939999957307,None,26.05625500000042,26.06450649999988,26.06450649999988,26.06450649999988,26.06450649999988,26.06450649999988,26.06450649999988,26.26226240000051,,,,,,,,,,,342704,,,001,2024-12-27_00h04.32.695,glasgowFaceRecognition-Yagmur,2024.2.4,59.99124127864539,2024-12-27 00h04.37.671492 +0300,
same/115_C2_DV.jpg,left,same,180,51,51,0,left,0.29198170000017853,None,0,51,51,51,26.280888299999788,,,,,,,,,26.27283890000035,26.280888299999788,26.280888299999788,26.280888299999788,26.280888299999788,26.280888299999788,26.280888299999788,26.579796900000474,left,0.29198170000017853,None,26.591659900000195,26.599283300000025,26.599283300000025,26.599283300000025,26.599283300000025,26.599283300000025,26.599283300000025,26.79568449999988,,,,,,,,,,,342704,,,001,2024-12-27_00h04.32.695,glasgowFaceRecognition-Yagmur,2024.2.4,59.99124127864539,2024-12-27 00h04.37.671492 +0300,
same/120_DV_C2.jpg,left,same,180,52,52,0,left,0.06946919999973034,None,0,52,52,52,26.814471700000468,,,,,,,,,26.807254600000306,26.814471700000468,26.814471700000468,26.814471700000468,26.814471700000468,26.814471700000468,26.814471700000468,26.896128000000317,left,0.06946919999973034,None,26.905423000000155,26.91459329999998,26.91459329999998,26.91459329999998,26.91459329999998,26.91459329999998,26.91459329999998,27.11224630000015,,,,,,,,,,,342704,,,001,2024-12-27_00h04.32.695,glasgowFaceRecognition-Yagmur,2024.2.4,59.99124127864539,2024-12-27 00h04.37.671492 +0300,
same/129_C2_DV.jpg,left,same,180,53,53,0,left,0.08148720000008325,None,0,53,53,53,27.130700499999875,,,,,,,,,27.122591199999988,27.130700499999875,27.130700499999875,27.130700499999875,27.130700499999875,27.130700499999875,27.130700499999875,27.213118800000302,left,0.08148720000008325,None,27.2227754000005,27.231088999999884,27.231088999999884,27.231088999999884,27.231088999999884,27.231088999999884,27.231088999999884,27.428814699999748,,,,,,,,,,,342704,,,001,2024-12-27_00h04.32.695,glasgowFaceRecognition-Yagmur,2024.2.4,59.99124127864539,2024-12-27 00h04.37.671492 +0300,
same/136_C2_DV.jpg,left,same,180,54,54,0,left,0.1094903000002887,None,0,54,54,54,27.447452899999917,,,,,,,,,27.437679800000296,27.447452899999917,27.447452899999917,27.447452899999917,27.447452899999917,27.447452899999917,27.447452899999917,27.562920000000304,left,0.1094903000002887,None,27.572212099999888,27.58151319999979,27.58151319999979,27.58151319999979,27.58151319999979,27.58151319999979,27.58151319999979,27.778727200000503,,,,,,,,,,,342704,,,001,2024-12-27_00h04.32.695,glasgowFaceRecognition-Yagmur,2024.2.4,59.99124127864539,2024-12-27 00h04.37.671492 +0300,
same/139_DV_C2.jpg,left,same,180,55,55,0,left,0.01558009999916976,None,0,55,55,55,27.797593000000234,,,,,,,,,27.787787399999615,27.797593000000234,27.797593000000234,27.797593000000234,27.797593000000234,27.797593000000234,27.797593000000234,27.82959370000026,left,0.01558009999916976,None,27.838849699999628,27.84836929999983,27.84836929999983,27.84836929999983,27.84836929999983,27.84836929999983,27.84836929999983,28.04560500000025,,,,,,,,,,,342704,,,001,2024-12-27_00h04.32.695,glasgowFaceRecognition-Yagmur,2024.2.4,59.99124127864539,2024-12-27 00h04.37.671492 +0300,
same/168_C2_DV.jpg,left,same,180,56,56,0,left,0.036663599999883445,None,0,56,56,56,28.06429939999998,,,,,,,,,28.054478799999742,28.06429939999998,28.06429939999998,28.06429939999998,28.06429939999998,28.06429939999998,28.06429939999998,28.112836000000243,left,0.036663599999883445,None,28.122223999999733,28.13120059999983,28.13120059999983,28.13120059999983,28.13120059999983,28.13120059999983,28.13120059999983,28.329151900000397,,,,,,,,,,,342704,,,001,2024-12-27_00h04.32.695,glasgowFaceRecognition-Yagmur,2024.2.4,59.99124127864539,2024-12-27 00h04.37.671492 +0300,
same/170_DV_C2.jpg,left,same,180,57,57,0,right,0.06423419999919133,None,0,57,57,57,28.34733049999977,,,,,,,,,28.338156900000286,28.34733049999977,28.34733049999977,28.34733049999977,28.34733049999977,28.34733049999977,28.34733049999977,28.412825299999895,right,0.06423419999919133,None,28.424721000000318,28.43225059999986,28.43225059999986,28.43225059999986,28.43225059999986,28.43225059999986,28.43225059999986,28.62868400000025,,,,,,,,,,,342704,,,001,2024-12-27_00h04.32.695,glasgowFaceRecognition-Yagmur,2024.2.4,59.99124127864539,2024-12-27 00h04.37.671492 +0300,
same/235_C2_DV.jpg,left,same,180,58,58,0,right,0.18066129999988334,None,0,58,58,58,28.64762780000001,,,,,,,,,28.63824029999978,28.64762780000001,28.64762780000001,28.64762780000001,28.64762780000001,28.64762780000001,28.64762780000001,28.829652899999928,right,0.18066129999988334,None,28.838851600000453,28.847924599999715,28.847924599999715,28.847924599999715,28.847924599999715,28.847924599999715,28.847924599999715,29.04532290000043,,,,,,,,,,,342704,,,001,2024-12-27_00h04.32.695,glasgowFaceRecognition-Yagmur,2024.2.4,59.99124127864539,2024-12-27 00h04.37.671492 +0300,
same/303_DV_C2.jpg,left,same,180,59,59,0,right,0.07687089999944874,None,0,59,59,59,29.0639541999999,,,,,,,,,29.05428959999972,29.0639541999999,29.0639541999999,29.0639541999999,29.0639541999999,29.0639541999999,29.0639541999999,29.145873100000244,right,0.07687089999944874,None,29.155195100000128,29.1644053,29.1644053,29.1644053,29.1644053,29.1644053,29.1644053,29.36300250000022,,,,,,,,,,,342704,,,001,2024-12-27_00h04.32.695,glasgowFaceRecognition-Yagmur,2024.2.4,59.99124127864539,2024-12-27 00h04.37.671492 +0300,
different/013_235_R.jpg,right,different,180,60,60,0,left,0.05236669999976584,None,0,60,60,60,29.38448570000037,,,,,,,,,29.37758339999982,29.38448570000037,29.38448570000037,29.38448570000037,29.38448570000037,29.38448570000037,29.38448570000037,29.445369199999732,left,0.05236669999976584,None,29.454766599999857,29.46398659999977,29.46398659999977,29.46398659999977,29.46398659999977,29.46398659999977,29.46398659999977,29.661205500000506,,,,,,,,,,,342704,,,001,2024-12-27_00h04.32.695,glasgowFaceRecognition-Yagmur,2024.2.4,59.99124127864539,2024-12-27 00h04.37.671492 +0300,
different/019_074_L.jpg,right,different,180,61,61,0,left,0.2470290000001114,None,0,61,61,61,29.67791810000017,,,,,,,,,29.669997300000432,29.67791810000017,29.67791810000017,29.67791810000017,29.67791810000017,29.67791810000017,29.67791810000017,29.928572499999973,left,0.2470290000001114,None,29.937603399999716,29.944614099999853,29.944614099999853,29.944614099999853,29.944614099999853,29.944614099999853,29.944614099999853,30.12844490000043,30.1447476000003,30.1447476000003,30.1447476000003,30.1447476000003,30.1447476000003,30.1447476000003,,,,,342704,,,001,2024-12-27_00h04.32.695,glasgowFaceRecognition-Yagmur,2024.2.4,59.99124127864539,2024-12-27 00h04.37.671492 +0300,
different/025_235_L.jpg,right,different,180,62,62,0,left,0.03557419999924605,None,0,62,62,62,30.1447476000003,,,,,,,,,30.136958699999923,30.1447476000003,30.1447476000003,30.1447476000003,30.1447476000003,30.1447476000003,30.1447476000003,30.195200000000114,left,0.03557419999924605,None,30.204305700000077,30.211302100000466,30.211302100000466,30.211302100000466,30.211302100000466,30.211302100000466,30.211302100000466,30.39504190000025,30.41136209999968,30.41136209999968,30.41136209999968,30.41136209999968,30.41136209999968,30.41136209999968,,,,,342704,,,001,2024-12-27_00h04.32.695,glasgowFaceRecognition-Yagmur,2024.2.4,59.99124127864539,2024-12-27 00h04.37.671492 +0300,
different/049_218_L.jpg,right,different,180,63,63,0,left,0.016367600000194216,None,0,63,63,63,30.41136209999968,,,,,,,,,30.403576800000337,30.41136209999968,30.41136209999968,30.41136209999968,30.41136209999968,30.41136209999968,30.41136209999968,30.42876150000029,left,0.016367600000194216,None,30.437616100000014,30.444610600000487,30.444610600000487,30.444610600000487,30.444610600000487,30.444610600000487,30.444610600000487,30.628523600000335,30.64465240000027,30.64465240000027,30.64465240000027,30.64465240000027,30.64465240000027,30.64465240000027,,,,,342704,,,001,2024-12-27_00h04.32.695,glasgowFaceRecognition-Yagmur,2024.2.4,59.99124127864539,2024-12-27 00h04.37.671492 +0300,
different/076_109_R.jpg,right,different,180,64,64,0,left,0.05610789999991539,None,0,64,64,64,30.64465240000027,,,,,,,,,30.637098299999707,30.64465240000027,30.64465240000027,30.64465240000027,30.64465240000027,30.64465240000027,30.64465240000027,30.711971200000335,left,0.05610789999991539,None,30.720992999999908,30.727902100000392,30.727902100000392,30.727902100000392,30.727902100000392,30.727902100000392,30.727902100000392,30.91170659999989,30.927978700000494,30.927978700000494,30.927978700000494,30.927978700000494,30.927978700000494,30.927978700000494,,,,,342704,,,001,2024-12-27_00h04.32.695,glasgowFaceRecognition-Yagmur,2024.2.4,59.99124127864539,2024-12-27 00h04.37.671492 +0300,
different/077_133_R.jpg,right,different,180,65,65,0,right,0.07673440000053233,None,0,65,65,65,30.927978700000494,,,,,,,,,30.92009979999966,30.927978700000494,30.927978700000494,30.927978700000494,30.927978700000494,30.927978700000494,30.927978700000494,31.012038500000017,right,0.07673440000053233,None,31.02328750000015,31.02795040000001,31.02795040000001,31.02795040000001,31.02795040000001,31.02795040000001,31.02795040000001,31.211645899999894,31.22799279999981,31.22799279999981,31.22799279999981,31.22799279999981,31.22799279999981,31.22799279999981,,,,,342704,,,001,2024-12-27_00h04.32.695,glasgowFaceRecognition-Yagmur,2024.2.4,59.99124127864539,2024-12-27 00h04.37.671492 +0300,
different/091_283_R.jpg,right,different,180,66,66,0,right,0.0012022000000797561,None,0,66,66,66,31.22799279999981,,,,,,,,,31.22017820000019,31.22799279999981,31.22799279999981,31.22799279999981,31.22799279999981,31.22799279999981,31.22799279999981,31.245116199999757,right,0.0012022000000797561,None,31.253550899999937,31.2611323000001,31.2611323000001,31.2611323000001,31.2611323000001,31.2611323000001,31.2611323000001,31.445103900000504,31.461296600000423,31.461296600000423,31.461296600000423,31.461296600000423,31.461296600000423,31.461296600000423,,,,,342704,,,001,2024-12-27_00h04.32.695,glasgowFaceRecognition-Yagmur,2024.2.4,59.99124127864539,2024-12-27 00h04.37.671492 +0300,
different/092_283_L.jpg,right,different,180,67,67,0,right,0.01564779999989696,None,0,67,67,67,31.461296600000423,,,,,,,,,31.45716530000027,31.461296600000423,31.461296600000423,31.461296600000423,31.461296600000423,31.461296600000423,31.461296600000423,31.478811900000437,right,0.01564779999989696,None,31.48851740000009,31.494624400000248,31.494624400000248,31.494624400000248,31.494624400000248,31.494624400000248,31.494624400000248,31.678089,31.694621599999664,31.694621599999664,31.694621599999664,31.694621599999664,31.694621599999664,31.694621599999664,,,,,342704,,,001,2024-12-27_00h04.32.695,glasgowFaceRecognition-Yagmur,2024.2.4,59.99124127864539,2024-12-27 00h04.37.671492 +0300,
different/102_224_R.jpg,right,different,180,68,68,0,left,0.038091399999757414,None,0,68,68,68,31.694621599999664,,,,,,,,,31.68676680000044,31.694621599999664,31.694621599999664,31.694621599999664,31.694621599999664,31.694621599999664,31.694621599999664,31.74504059999981,left,0.038091399999757414,None,31.756655299999693,31.7613523,31.7613523,31.7613523,31.7613523,31.7613523,31.7613523,31.94494610000038,31.961064799999804,31.961064799999804,31.961064799999804,31.961064799999804,31.961064799999804,31.961064799999804,,,,,342704,,,001,2024-12-27_00h04.32.695,glasgowFaceRecognition-Yagmur,2024.2.4,59.99124127864539,2024-12-27 00h04.37.671492 +0300,
different/106_224_L.jpg,right,different,180,69,69,0,left,0.027935799999795563,None,0,69,69,69,31.961064799999804,,,,,,,,,31.953242700000374,31.961064799999804,31.961064799999804,31.961064799999804,31.961064799999804,31.961064799999804,31.961064799999804,31.99524930000007,left,0.027935799999795563,None,32.003891600000316,32.01145030000043,32.01145030000043,32.01145030000043,32.01145030000043,32.01145030000043,32.01145030000043,32.194867299999714,32.2113274000003,32.2113274000003,32.2113274000003,32.2113274000003,32.2113274000003,32.2113274000003,,,,,342704,,,001,2024-12-27_00h04.32.695,glasgowFaceRecognition-Yagmur,2024.2.4,59.99124127864539,2024-12-27 00h04.37.671492 +0300,
different/116_067_R.jpg,right,different,180,70,70,0,left,0.017858799999885377,None,0,70,70,70,32.2113274000003,,,,,,,,,32.20383120000042,32.2113274000003,32.2113274000003,32.2113274000003,32.2113274000003,32.2113274000003,32.2113274000003,32.24512690000029,left,0.017858799999885377,None,32.253850500000226,32.26122490000034,32.26122490000034,32.26122490000034,32.26122490000034,32.26122490000034,32.26122490000034,32.444826300000386,32.461258700000144,32.461258700000144,32.461258700000144,32.461258700000144,32.461258700000144,32.461258700000144,,,,,342704,,,001,2024-12-27_00h04.32.695,glasgowFaceRecognition-Yagmur,2024.2.4,59.99124127864539,2024-12-27 00h04.37.671492 +0300,
different/120_133_R.jpg,right,different,180,71,71,0,right,0.03972929999963526,None,0,71,71,71,32.461258700000144,,,,,,,,,32.455516400000306,32.461258700000144,32.461258700000144,32.461258700000144,32.461258700000144,32.461258700000144,32.461258700000144,32.511557699999685,right,0.03972929999963526,None,32.524048700000094,32.528581399999894,32.528581399999894,32.528581399999894,32.528581399999894,32.528581399999894,32.528581399999894,32.71152239999992,32.7275024999999,32.7275024999999,32.7275024999999,32.7275024999999,32.7275024999999,32.7275024999999,,,,,342704,,,001,2024-12-27_00h04.32.695,glasgowFaceRecognition-Yagmur,2024.2.4,59.99124127864539,2024-12-27 00h04.37.671492 +0300,
different/132_210_R.jpg,right,different,180,72,72,0,right,0.18131020000055287,None,0,72,72,72,32.7275024999999,,,,,,,,,32.719815200000085,32.7275024999999,32.7275024999999,32.7275024999999,32.7275024999999,32.7275024999999,32.7275024999999,32.911492799999905,right,0.18131020000055287,None,32.920191299999715,32.9275161000005,32.9275161000005,32.9275161000005,32.9275161000005,32.9275161000005,32.9275161000005,33.111387699999796,33.12744459999976,33.12744459999976,33.12744459999976,33.12744459999976,33.12744459999976,33.12744459999976,,,,,342704,,,001,2024-12-27_00h04.32.695,glasgowFaceRecognition-Yagmur,2024.2.4,59.99124127864539,2024-12-27 00h04.37.671492 +0300,
different/143_254_R.jpg,right,different,180,73,73,0,right,0.1496079999997164,None,0,73,73,73,33.12744459999976,,,,,,,,,33.11986049999996,33.12744459999976,33.12744459999976,33.12744459999976,33.12744459999976,33.12744459999976,33.12744459999976,33.27820350000002,right,0.1496079999997164,None,33.28711889999977,33.29410960000041,33.29410960000041,33.29410960000041,33.29410960000041,33.29410960000041,33.29410960000041,33.47854410000036,33.49427040000046,33.49427040000046,33.49427040000046,33.49427040000046,33.49427040000046,33.49427040000046,,,,,342704,,,001,2024-12-27_00h04.32.695,glasgowFaceRecognition-Yagmur,2024.2.4,59.99124127864539,2024-12-27 00h04.37.671492 +0300,
different/209_224_R.jpg,right,different,180,74,74,0,right,0.1580749000004289,None,0,74,74,74,33.49427040000046,,,,,,,,,33.487632100000155,33.49427040000046,33.49427040000046,33.49427040000046,33.49427040000046,33.49427040000046,33.49427040000046,33.66160620000028,right,0.1580749000004289,None,33.67136269999992,33.67770070000006,33.67770070000006,33.67770070000006,33.67770070000006,33.67770070000006,33.67770070000006,33.861266500000056,33.87774139999965,33.87774139999965,33.87774139999965,33.87774139999965,33.87774139999965,33.87774139999965,,,,,342704,,,001,2024-12-27_00h04.32.695,glasgowFaceRecognition-Yagmur,2024.2.4,59.99124127864539,2024-12-27 00h04.37.671492 +0300,
different/254_287_L.jpg,right,different,180,75,75,0,right,0.31791789999988396,None,0,75,75,75,33.87774139999965,,,,,,,,,33.86983700000019,33.87774139999965,33.87774139999965,33.87774139999965,33.87774139999965,33.87774139999965,33.87774139999965,34.21130429999994,right,0.31791789999988396,None,34.2201799000004,34.22749060000024,34.22749060000024,34.22749060000024,34.22749060000024,34.22749060000024,34.22749060000024,34.411207099999956,34.42769849999968,34.42769849999968,34.42769849999968,34.42769849999968,34.42769849999968,34.42769849999968,,,,,342704,,,001,2024-12-27_00h04.32.695,glasgowFaceRecognition-Yagmur,2024.2.4,59.99124127864539,2024-12-27 00h04.37.671492 +0300,
different/261_254_L.jpg,right,different,180,76,76,0,right,0.16863560000001598,None,0,76,76,76,34.42769849999968,,,,,,,,,34.41959909999969,34.42769849999968,34.42769849999968,34.42769849999968,34.42769849999968,34.42769849999968,34.42769849999968,34.611540400000194,right,0.16863560000001598,None,34.62031949999982,34.62727090000044,34.62727090000044,34.62727090000044,34.62727090000044,34.62727090000044,34.62727090000044,34.81094300000041,34.827226999999766,34.827226999999766,34.827226999999766,34.827226999999766,34.827226999999766,34.827226999999766,,,,,342704,,,001,2024-12-27_00h04.32.695,glasgowFaceRecognition-Yagmur,2024.2.4,59.99124127864539,2024-12-27 00h04.37.671492 +0300,
different/282_108_R.jpg,right,different,180,77,77,0,right,0.15248610000071494,None,0,77,77,77,34.827226999999766,,,,,,,,,34.81947070000024,34.827226999999766,34.827226999999766,34.827226999999766,34.827226999999766,34.827226999999766,34.827226999999766,34.994518999999855,right,0.15248610000071494,None,35.00343989999965,35.01061870000012,35.01061870000012,35.01061870000012,35.01061870000012,35.01061870000012,35.01061870000012,35.194516399999884,35.21055690000048,35.21055690000048,35.21055690000048,35.21055690000048,35.21055690000048,35.21055690000048,,,,,342704,,,001,2024-12-27_00h04.32.695,glasgowFaceRecognition-Yagmur,2024.2.4,59.99124127864539,2024-12-27 00h04.37.671492 +0300,
different/296_235_L.jpg,right,different,180,78,78,0,right,0.17780649999986053,None,0,78,78,78,35.21055690000048,,,,,,,,,35.20309879999968,35.21055690000048,35.21055690000048,35.21055690000048,35.21055690000048,35.21055690000048,35.21055690000048,35.39478849999978,right,0.17780649999986053,None,35.403580899999724,35.41074209999988,35.41074209999988,35.41074209999988,35.41074209999988,35.41074209999988,35.41074209999988,35.59435980000035,35.6107748000004,35.6107748000004,35.6107748000004,35.6107748000004,35.6107748000004,35.6107748000004,,,,,342704,,,001,2024-12-27_00h04.32.695,glasgowFaceRecognition-Yagmur,2024.2.4,59.99124127864539,2024-12-27 00h04.37.671492 +0300,
different/303_037_R.jpg,right,different,180,79,79,0,right,0.1775484999998298,None,0,79,79,79,35.6107748000004,,,,,,,,,35.60266159999992,35.6107748000004,35.6107748000004,35.6107748000004,35.6107748000004,35.6107748000004,35.6107748000004,35.7947793000003,right,0.1775484999998298,None,35.80384049999975,35.810773600000175,35.810773600000175,35.810773600000175,35.810773600000175,35.810773600000175,35.810773600000175,35.994466099999954,36.01000709999971,36.01000709999971,36.01000709999971,36.01000709999971,36.01000709999971,36.01000709999971,,,,,342704,,,001,2024-12-27_00h04.32.695,glasgowFaceRecognition-Yagmur,2024.2.4,59.99124127864539,2024-12-27 00h04.37.671492 +0300,
,,,,,,,,,,,,,,,,,,,,,,,,,,,,,,,,,,,,,,,,,,,,,,,,35.99455659999967,36.01000709999971,41.00951789999999,40.993469600000026,342704,,,001,2024-12-27_00h04.32.695,glasgowFaceRecognition-Yagmur,2024.2.4,59.99124127864539,2024-12-27 00h04.37.671492 +0300,
